timestamp,session_uid,frame,suspension_pos_rl,suspension_pos_rr,suspension_pos_fl,suspension_pos_fr,suspension_vel_rl,suspension_vel_rr,suspension_vel_fl,suspension_vel_fr,suspension_acc_rl,suspension_acc_rr,suspension_acc_fl,suspension_acc_fr,wheel_speed_rl,wheel_speed_rr,wheel_speed_fl,wheel_speed_fr,wheel_slip_ratio_rl,wheel_slip_ratio_rr,wheel_slip_ratio_fl,wheel_slip_ratio_fr,wheel_slip_angle_rl,wheel_slip_angle_rr,wheel_slip_angle_fl,wheel_slip_angle_fr,wheel_lat_force_rl,wheel_lat_force_rr,wheel_lat_force_fl,wheel_lat_force_fr,wheel_long_force_rl,wheel_long_force_rr,wheel_long_force_fl,wheel_long_force_fr,height_of_cog,local_velocity_x,local_velocity_y,local_velocity_z,angular_velocity_x,angular_velocity_y,angular_velocity_z,angular_acceleration_x,angular_acceleration_y,angular_acceleration_z,front_wheels_angle,wheel_vert_force_rl,wheel_vert_force_rr,wheel_vert_force_fl,wheel_vert_force_fr
1761462568.6561084,14516211168466667019,0,32.287803649902344,32.07070541381836,53.74372482299805,53.89114761352539,-0.11647205054759979,0.16939567029476166,-0.1409291923046112,0.15416009724140167,-6.267685890197754,9.115653038024902,-7.583792686462402,8.295784950256348,0.0,0.0,0.0,0.0,-0.0006450694636441767,-0.0006180391064845026,-0.000646613072603941,-0.000615196768194437,0.0006267190328799188,0.0006236407207325101,0.0004729597130790353,0.00047352389083243906,364.4685974121094,-325.17266845703125,124.20804595947266,-101.72299194335938,-270.69049072265625,-290.09649658203125,240.6758270263672,238.66046142578125,0.30129432678222656,0.0017160006100311875,-0.0005800988292321563,0.0008999744895845652,0.002675677416846156,0.00046392789226956666,-0.0005889463936910033,0.14398565888404846,0.024965252727270126,-0.03169284760951996,-0.0,2392.435546875,2357.50146484375,2098.795654296875,2182.264404296875
1761462569.7108085,14516211168466667019,16,29.22649574279785,29.062721252441406,53.77314758300781,53.952938079833984,-0.06963498145341873,-0.04897855222225189,-0.020071260631084442,0.013868479989469051,0.23660551011562347,1.6677922010421753,-0.7073726058006287,1.0273293256759644,0.0,0.0,0.0,0.0,-0.0007044345256872475,-0.0007198195089586079,-0.0007070659776218235,-0.0007162145338952541,0.0007889193366281688,0.000783540541306138,0.0007103050011210144,0.0007126783602871001,369.38946533203125,-349.86993408203125,133.39576721191406,-118.53575897216797,-268.46331787109375,-285.6874084472656,237.5257110595703,237.71995544433594,0.3039665222167969,0.0025989648420363665,-0.0015817898092791438,0.0010028007673099637,0.004149138927459717,0.0007095561013557017,-0.0006713809561915696,0.004859684035181999,0.008060211315751076,-0.003085510339587927,-0.0,2408.72216796875,2384.998779296875,2121.7880859375,2223.052001953125
1761462572.0356576,14516211168466667019,17,29.225444793701172,29.03934097290039,53.769527435302734,53.93571472167969,0.036905206739902496,-0.08342166244983673,-0.010381141677498817,-0.07038314640522003,1.4205358028411865,-0.45924144983291626,0.12920157611370087,-1.1233550310134888,0.0,0.0,0.0,0.0,-0.0007492912700399756,-0.0007816985016688704,-0.0007505844696424901,-0.0007767481147311628,0.0009127121302299201,0.0009066882194019854,0.0007343413308262825,0.0007370009552687407,352.1440734863281,-361.11749267578125,130.2692413330078,-118.07240295410156,-272.807373046875,-290.50347900390625,230.0773162841797,228.58502197265625,0.3039894104003906,0.0031342932488769293,-0.0015952977119013667,0.0011395059991627932,0.0042280214838683605,0.0013820466119796038,-0.0010902867652475834,0.001051767379976809,0.008966539986431599,-0.0055854106321930885,-0.0,2409.825439453125,2379.20849609375,2120.029296875,2210.44775390625
1761462573.0521243,14516211168466667019,37,29.20008087158203,29.03123664855957,53.76872634887695,53.94602584838867,-0.02360168658196926,-0.06356721371412277,0.014056116342544556,0.007762332446873188,2.0331647396087646,2.6061058044433594,-0.6764705181121826,0.42530298233032227,0.0,0.0,0.0,0.0,-0.0006442426238209009,-0.000624625536147505,-0.0006476727430708706,-0.0006205897661857307,0.0007411286351270974,0.0007364831981249154,0.0006315988139249384,0.0006336477235890925,385.5211486816406,-335.2987365722656,141.160888671875,-110.64359283447266,-268.3161315917969,-284.8621826171875,241.12986755371094,243.71873474121094,0.30399513244628906,0.0020971703343093395,-0.001316843437962234,0.0009255252662114799,0.003334459848701954,0.00026826513931155205,-0.0006161282071843743,-0.0011973791988566518,-0.0006245170370675623,-0.0016649842727929354,-0.0,2403.837158203125,2381.27197265625,2116.18994140625,2218.1259765625
1761462574.058049,14516211168466667019,58,29.178199768066406,28.99372673034668,53.76476287841797,53.933258056640625,0.07973659038543701,0.17576760053634644,-0.030853338539600372,0.046665675938129425,9.104028701782227,18.20699691772461,-4.914803504943848,-0.13807852566242218,0.0,0.0,0.0,0.0,-0.000658952456433326,-0.0006580970366485417,-0.0006616568425670266,-0.0006539298919960856,0.0007752178935334086,0.0007704164017923176,0.0006738023366779089,0.000675915100146085,379.356201171875,-338.4663391113281,137.27810668945312,-112.52481842041016,-268.6428527832031,-286.2171936035156,237.93057250976562,239.38687133789062,0.3040313720703125,0.0021187374368309975,-0.0010652471100911498,0.0009955994319170713,0.003371358849108219,0.0004080861690454185,-0.0007322630262933671,-0.003100953297689557,-0.004568707663565874,-0.00529072992503643,-0.0,2400.672607421875,2375.241455078125,2113.547119140625,2209.6298828125
1761462575.0954568,14516211168466667019,79,29.170347213745117,29.00691032409668,53.75962829589844,53.9404296875,-0.00010539274080656469,0.002845603972673416,-0.009274560958147049,-0.011803988367319107,0.9653083086013794,0.16101081669330597,-0.40486592054367065,-1.1955010890960693,0.0,0.0,0.0,0.0,-0.0006409629713743925,-0.000633995805401355,-0.0006439145654439926,-0.0006301369867287576,0.0007235863013193011,0.000718932191375643,0.00064007134642452,0.0006421229336410761,385.2903137207031,-333.5882873535156,141.08474731445312,-108.36682891845703,-268.32916259765625,-284.212158203125,239.0958251953125,243.55404663085938,0.3040275573730469,0.0020580159034579992,-0.0011781022185459733,0.0009613326983526349,0.003365836339071393,0.00027231150306761265,-0.0004649857000913471,0.00014159515558276325,0.00023235476692207158,-0.0022085774689912796,-0.0,2398.26708984375,2377.052490234375,2109.641357421875,2213.671630859375
1761462576.1396956,14516211168466667019,100,29.166292190551758,29.006933212280273,53.758846282958984,53.94164276123047,-0.00032387656392529607,0.01954055391252041,-0.0036706009414047003,0.0002159177092835307,-1.4575952291488647,1.814447045326233,-0.3378629982471466,0.21269869804382324,0.0,0.0,0.0,0.0,-0.0006342475535348058,-0.0006255030748434365,-0.0006372453062795103,-0.0006216982146725059,0.0007114821346476674,0.000706900900695473,0.0006320448592305183,0.000634066469501704,386.93310546875,-333.787109375,143.47447204589844,-108.8072509765625,-267.63262939453125,-284.5119323730469,240.51181030273438,243.45840454101562,0.3040275573730469,0.0020163548178970814,-0.0011630962835624814,0.0009508436778560281,0.003328639781102538,0.00023695627169217914,-0.0003988218668382615,5.662441981257871e-05,-9.429700003238395e-05,0.00040864956099539995,-0.0,2397.287841796875,2377.15185546875,2108.98828125,2214.30859375
1761462577.1852207,14516211168466667019,121,33.245235443115234,33.188926696777344,53.600406646728516,52.94489288330078,26.061687469482422,18.433795928955078,-4.559262752532959,6.605461120605469,-235.92434692382812,-63.93081283569336,-69.70771789550781,-31.17154884338379,7.160140514373779,7.271635055541992,5.437592506408691,5.472460746765137,0.18235506117343903,0.1859031617641449,-0.002286215079948306,-0.002654361305758357,0.005904190242290497,-0.00042258805478923023,0.0024995319545269012,0.0034833429381251335,-379.0824890136719,163.572998046875,-413.79443359375,-257.0627136230469,5035.48828125,4905.6923828125,-316.5895690917969,-294.41357421875,0.30048561096191406,0.04309177026152611,0.012391343712806702,5.4697771072387695,-0.008736222982406616,0.014862705022096634,-0.004808074329048395,-0.03587610274553299,-1.263851523399353,-0.16877569258213043,-0.012288452126085758,2937.517822265625,2875.799072265625,1960.8916015625,1526.6580810546875
1761462578.1985714,14516211168466667019,141,33.693214416503906,33.61049270629883,53.26248550415039,53.30824279785156,7.747786998748779,10.65854263305664,-2.46453857421875,-3.807499885559082,190.69815063476562,217.96505737304688,53.433753967285156,19.158411026000977,14.254815101623535,14.281876564025879,12.430985450744629,12.467782974243164,0.13136011362075806,0.1338241994380951,-0.0028174854815006256,-0.0026692114770412445,0.0038346080109477043,-0.0038673710078001022,-0.0014186161570250988,0.0013701457064598799,-370.5425109863281,367.55670166015625,43.71220397949219,-39.187583923339844,5014.81494140625,5008.39111328125,-348.6185607910156,-329.39874267578125,0.30234718322753906,-0.00045793497702106833,0.041523903608322144,12.460450172424316,-0.014255833812057972,-0.00012970090028829873,0.008710299618542194,0.03506772592663765,0.0012814877554774284,-0.09274106472730637,-0.0,2926.43798828125,2916.544677734375,1679.6123046875,1694.429931640625
1761462579.2467434,14516211168466667019,163,35.23000717163086,34.404300689697266,53.52130126953125,53.26675033569336,30.303735733032227,38.012027740478516,4.846684455871582,16.222517013549805,-1841.74267578125,782.453369140625,-321.721923828125,1005.0675659179688,26.324058532714844,26.053743362426758,22.523569107055664,22.733068466186523,0.16277647018432617,0.13832800090312958,-0.0013631480978801847,-0.0010401445906609297,-0.008460276760160923,-0.0161956325173378,0.0022678724490106106,0.0042276643216609955,183.15826416015625,1083.1802978515625,-423.6626892089844,-350.9375915527344,5413.88232421875,5597.33544921875,-197.16419982910156,-141.31350708007812,0.2994537353515625,-0.06035830080509186,0.047126710414886475,22.654895782470703,0.004975931253284216,0.12890374660491943,0.010072963312268257,0.8623692393302917,-2.5997183322906494,0.7250106930732727,-0.005880565848201513,3239.0107421875,3359.9521484375,1990.1611328125,1807.376953125
1761462580.29309,14516211168466667019,184,37.867427825927734,34.66612243652344,54.85509490966797,52.490455627441406,18.056474685668945,-12.844721794128418,15.453958511352539,-11.069446563720703,-1047.36474609375,1370.2598876953125,-664.7714233398438,825.374267578125,32.018524169921875,32.657588958740234,29.885906219482422,29.52597427368164,0.06384611874818802,0.09693058580160141,-0.0009090031962841749,-0.0014673295663669705,0.013456634245812893,0.005292920861393213,0.008419100195169449,0.008345511741936207,-1811.9754638671875,-198.38192749023438,-1358.9088134765625,-713.0941162109375,5892.47412109375,5100.3896484375,-164.47584533691406,-155.7596435546875,0.2982769012451172,-0.07333581894636154,0.10508877038955688,29.73866844177246,0.0069935135543346405,-0.2166881412267685,0.007643027696758509,2.4967732429504395,-1.1388674974441528,2.920015335083008,0.026580220088362694,3864.9384765625,2953.29052734375,2830.128662109375,1255.60302734375
1761462581.2969408,14516211168466667019,204,30.987960815429688,31.085927963256836,54.61319351196289,54.69834899902344,-8.406116485595703,2.0488789081573486,0.5041314959526062,1.3510396480560303,-266.86187744140625,203.0150146484375,74.30801391601562,-197.69808959960938,35.411537170410156,35.440155029296875,35.59267044067383,35.625770568847656,-0.004941682331264019,-0.005119087174534798,0.0001950498844962567,4.036597965750843e-05,0.002968713641166687,-0.004197365138679743,-0.004816199187189341,-0.0021240394562482834,-719.2296752929688,961.741455078125,405.7301025390625,533.5732421875,-762.80712890625,-817.1754760742188,34.794677734375,7.512331962585449,0.3001823425292969,0.012679414823651314,0.22846657037734985,35.604896545410156,0.016880931332707405,0.021568935364484787,0.012441950850188732,0.42369991540908813,0.7859312891960144,0.6301509737968445,-0.004521725233644247,3047.223388671875,3169.10009765625,2693.218505859375,2814.84521484375
1761462582.347199,14516211168466667019,225,35.004398345947266,33.35259246826172,55.29481506347656,54.826622009277344,-89.0343017578125,-67.6864013671875,-20.696718215942383,26.74142837524414,109.77318572998047,243.09068298339844,-553.6226196289062,218.18336486816406,42.51223373413086,42.5181999206543,42.712745666503906,42.73508071899414,-0.004493762739002705,-0.004891993943601847,0.00012204363156342879,0.00011202128371223807,0.006784201133996248,-0.0013425658689811826,0.0013964209938421845,0.004681896883994341,-1457.5894775390625,438.6051940917969,-449.4028015136719,-345.9736022949219,-752.0301513671875,-755.4874267578125,24.086477279663086,21.642383575439453,0.29586029052734375,0.1281367838382721,0.31532466411590576,42.71584701538086,0.058611586689949036,0.012830838561058044,-0.0022898209281265736,-1.070099115371704,0.1837599128484726,0.07466872781515121,-0.0005874488269910216,3460.5966796875,2982.004638671875,3136.157958984375,2952.07861328125
1761462583.387764,14516211168466667019,246,34.85198211669922,35.71799850463867,55.4051513671875,55.51042938232422,-34.45744323730469,30.327287673950195,-24.829877853393555,31.292438507080078,-584.6812744140625,1151.230712890625,-1232.676025390625,1305.77978515625,49.47319412231445,49.59062957763672,49.63378143310547,49.79158401489258,-0.0030598032753914595,-0.004012151621282101,0.00035781742190010846,-0.00011701617040671408,0.004487143363803625,-0.0036000581458210945,-0.011505871079862118,-0.010079212486743927,-1095.2281494140625,1003.6483764648438,1239.0621337890625,1822.8292236328125,-547.7642822265625,-775.6024780273438,68.86565399169922,-25.975648880004883,0.2955341339111328,0.18321025371551514,0.2562592029571533,49.707763671875,0.0656033605337143,0.10714837163686752,0.06389942020177841,0.36339572072029114,4.145063877105713,0.3397938311100006,-0.016890138387680054,3763.742919921875,4177.85986328125,3065.6982421875,3613.415771484375
1761462584.3985689,14516211168466667019,267,34.948097229003906,35.24235534667969,55.498085021972656,55.471134185791016,6.469264030456543,7.147416114807129,-7.29694938659668,8.992551803588867,535.167724609375,-87.66802978515625,166.31033325195312,548.0154418945312,49.84786605834961,49.834503173828125,50.03264236450195,50.013145446777344,-0.003626760095357895,-0.003448114264756441,4.763711694977246e-05,0.00016518532356712967,0.004868431016802788,-0.0031450369860976934,0.002105472842231393,0.005207908805459738,-1222.206298828125,872.8093872070312,-601.75146484375,-432.1575927734375,-680.9639282226562,-643.001953125,10.18498420715332,34.80510711669922,0.2962684631347656,0.02109740674495697,0.24333631992340088,50.0182991027832,-0.01574910245835781,-0.014013548381626606,-0.011034756898880005,-1.066253900527954,-0.7216416001319885,-1.51292085647583,0.002414254704490304,4042.166015625,4009.46484375,3354.1884765625,3310.25390625
1761462585.4387882,14516211168466667019,288,43.405029296875,43.46024703979492,55.582515716552734,55.41984176635742,35.79832077026367,40.60215759277344,24.001968383789062,8.457228660583496,-556.2098388671875,-1372.2183837890625,679.9532470703125,-259.16839599609375,52.440025329589844,52.42940902709961,50.90644454956055,50.90639114379883,0.02949405461549759,0.029382165521383286,-0.0006970748654566705,-0.0007162829861044884,0.004842289257794619,-0.004659952595829964,-0.0015680436044931412,0.0018640478374436498,-1270.5301513671875,1254.6162109375,-87.61476135253906,36.93549728393555,5309.3212890625,5327.26513671875,-154.20448303222656,-152.24757385253906,0.2898120880126953,0.0061132945120334625,0.05327033996582031,50.94389724731445,-0.015339634381234646,0.0008507176535204053,0.019874121993780136,0.23903727531433105,-0.037591602653265,0.19966575503349304,-0.0,5224.8427734375,5245.94677734375,3532.5908203125,3375.135498046875
1761462586.4987226,14516211168466667019,309,42.07577133178711,48.16714859008789,54.02758026123047,57.78321838378906,-13.450383186340332,-27.39339828491211,-3.9817392826080322,-2.7148423194885254,1038.9669189453125,-362.9296569824219,500.2587585449219,218.23789978027344,61.049224853515625,60.79447937011719,59.06609344482422,59.422637939453125,0.0323902927339077,0.02111918479204178,-0.0008224811754189432,-0.001975053921341896,-0.015255918726325035,-0.025038545951247215,-0.017350556328892708,-0.015113390982151031,2107.15673828125,5377.5634765625,1845.501953125,2734.737548828125,4705.61328125,4514.70703125,-132.084228515625,-518.0550537109375,0.28740501403808594,-0.7358883619308472,0.13005614280700684,59.33460235595703,0.006228900048881769,0.2644732892513275,-0.014549456536769867,-0.6838206648826599,-2.6962904930114746,-0.7312827110290527,-0.013961086049675941,4073.70751953125,6454.390625,2345.111572265625,4851.3173828125
1761462587.546895,14516211168466667019,330,43.62690734863281,42.95334243774414,57.33061218261719,57.63930130004883,15.435441017150879,4.533156394958496,6.078108787536621,7.823780059814453,-1049.91064453125,-177.46835327148438,218.38543701171875,-77.87789916992188,63.17618942260742,63.176212310791016,63.320068359375,63.320682525634766,-0.0021841649431735277,-0.0022018500603735447,8.034074562601745e-05,7.238055695779622e-05,0.0047744703479111195,-0.004782278090715408,-0.0020275264978408813,0.002120393328368664,-1451.60888671875,1437.7491455078125,-159.38131713867188,146.37042236328125,-503.1065368652344,-501.0346984863281,21.223464965820312,19.638587951660156,0.28576087951660156,-0.001150802243500948,0.19262564182281494,63.31620407104492,-0.016718119382858276,0.0013013368006795645,-0.007207941263914108,-0.1723964661359787,-0.00560365803539753,0.09917455911636353,-0.0,5771.35498046875,5641.6318359375,4740.88916015625,4905.17919921875
1761462588.591833,14516211168466667019,351,39.36676788330078,42.20111083984375,56.96549987792969,56.276123046875,7.941126823425293,3.6504862308502197,0.9224563241004944,-6.285756587982178,-70.01901245117188,45.704837799072266,-91.91929626464844,47.03252410888672,58.48593521118164,58.47901916503906,58.6469612121582,58.63190460205078,-0.0026377381291240454,-0.0024921002332121134,9.496466373093426e-05,0.00010547080455580726,0.004165005404502153,-0.004967251792550087,-0.002912894356995821,0.0010020540794357657,-1232.5418701171875,1397.0797119140625,26.164884567260742,215.84213256835938,-553.4134521484375,-554.1415405273438,23.694704055786133,24.84439468383789,0.28658485412597656,-0.027858398854732513,0.2126314640045166,58.63310241699219,0.04377336427569389,-0.010893031023442745,0.03333471715450287,0.4599702060222626,0.12155831605195999,-0.3028768002986908,-0.0,4901.58154296875,5446.36669921875,4302.80029296875,3922.48046875
1761462589.5949535,14516211168466667019,372,39.96416091918945,31.740304946899414,58.083213806152344,53.58721160888672,17.184690475463867,-39.12202453613281,1.5120952129364014,-25.39783477783203,-446.3865051269531,1894.9542236328125,-402.8946228027344,-667.0786743164062,44.42675018310547,43.9505729675293,44.67258071899414,43.963653564453125,-0.005623480770736933,-0.0007792185642756522,2.177494934585411e-05,0.0006065450143069029,0.024531623348593712,0.01664322055876255,0.0388554148375988,0.036339171230793,-5115.9658203125,-2405.3388671875,-5744.505859375,-2639.453369140625,-1203.3323974609375,-104.39122009277344,5.287416934967041,63.16561508178711,0.29624176025390625,0.1481570303440094,0.22299838066101074,44.33296585083008,-0.03865686058998108,-0.4575776159763336,-0.048400506377220154,0.7562532424926758,-1.994077444076538,1.2475167512893677,0.05739498510956764,5651.0869140625,2565.5927734375,5253.44189453125,1892.7098388671875
1761462590.602388,14516211168466667019,392,31.90033531188965,42.82999801635742,62.12052536010742,51.66206359863281,6.365623950958252,8.625778198242188,161.61351013183594,-9.81049919128418,-1168.9935302734375,-35.266117095947266,8788.9560546875,801.4381103515625,40.663265228271484,40.34125518798828,40.96100616455078,40.40022277832031,-0.007090889383107424,-0.0015517182182520628,-4.201578121865168e-05,0.0006790425395593047,0.0182122103869915,0.009920518845319748,0.031140854582190514,0.02920425496995449,-2674.783935546875,-1525.84716796875,-3483.4921875,-2006.5697021484375,-865.6271362304688,-299.0721130371094,8.372638702392578,64.50582122802734,0.3061370849609375,0.024735137820243835,0.19993549585342407,40.67097473144531,0.025239180773496628,-0.37297603487968445,0.30013224482536316,-0.45244425535202026,-2.972053050994873,6.475697994232178,0.0506039522588253,3586.47021484375,5170.69482421875,8343.369140625,1714.7845458984375
1761462591.650084,14516211168466667019,413,39.5544548034668,36.958499908447266,54.80992126464844,50.8173713684082,-168.26348876953125,237.14268493652344,-67.62358856201172,-146.458740234375,-6656.033203125,13352.0078125,-10195.3173828125,-8444.0126953125,25.933273315429688,25.742324829101562,25.62422752380371,25.016067504882812,-0.0637267678976059,-0.05042035132646561,-0.10144759714603424,-0.04009310156106949,0.07118485122919083,0.06402722746133804,0.10530272126197815,0.100505031645298,-0.0,-3340.279541015625,-3838.9853515625,-0.0,-0.0,-2859.333251953125,-3468.008056640625,-0.0,0.3002357482910156,1.2911428213119507,0.17153537273406982,27.44451904296875,0.06331555545330048,-0.33431151509284973,0.03812229260802269,2.1853041648864746,0.42179074883461,-4.716480731964111,0.08453135937452316,2102.762939453125,3025.349365234375,2977.753173828125,1032.4049072265625
1761462592.6846042,14516211168466667019,434,29.983455657958984,29.19999122619629,54.33942413330078,53.8405647277832,-4.414795875549316,32.130741119384766,-7.044801712036133,18.253496170043945,-1010.9636840820312,76.76087951660156,-129.3332977294922,1281.93359375,19.871694564819336,19.728580474853516,20.006662368774414,19.814725875854492,-0.006209138315171003,-0.004274762235581875,0.00014968440518714488,0.00011551829084055498,0.006376498378813267,-0.00035852970904670656,0.002952394774183631,0.003367807948961854,-903.7769165039062,164.10792541503906,-424.5868835449219,-186.7138671875,-640.626953125,-463.0042419433594,17.8494930267334,14.06974983215332,0.3044013977050781,-0.13843119144439697,0.1062571108341217,19.904748916625977,-0.0027391519397497177,-0.1185636967420578,0.03600286319851875,0.5671055316925049,0.2056887149810791,-0.17922358214855194,0.0231246966868639,2964.794921875,2782.9638671875,2517.85400390625,2259.509521484375
1761462593.6997983,14516211168466667019,455,30.886905670166016,27.726531982421875,55.134944915771484,54.04481887817383,22.4057559967041,-9.814495086669922,14.415946960449219,0.9028602838516235,2410.71337890625,-2050.661865234375,2217.288818359375,-8104.2763671875,18.502046585083008,17.970748901367188,18.74890899658203,17.977096557617188,-0.00993769895285368,0.0014999242266640067,-4.704920968379156e-07,0.0004183398559689522,0.018673421815037727,0.01256859116256237,0.03690390661358833,0.025311287492513657,-2486.205078125,-1242.4326171875,-3330.545654296875,-1808.106689453125,-1159.207275390625,122.35139465332031,-0.05953226238489151,41.174198150634766,0.3051261901855469,-0.5282937288284302,0.1228935718536377,18.313295364379883,0.055564701557159424,-0.48750144243240356,-0.057433485984802246,1.3749167919158936,-1.8274015188217163,-3.4630753993988037,0.11642511188983917,3632.24365234375,1913.8416748046875,3420.009765625,2107.737548828125
1761462601.6951697,14516211168466667019,456,31.190046310424805,27.17530632019043,55.87887191772461,52.444908142089844,-45.47262191772461,28.552419662475586,26.1363582611084,-24.003211975097656,-4049.894775390625,2971.227294921875,1455.5291748046875,93.05288696289062,18.335800170898438,17.872039794921875,18.516889572143555,17.856348037719727,-0.008767812512814999,-0.00024472730001434684,0.0022515037562698126,-0.00016420833708252758,0.014953103847801685,0.008688461035490036,-0.06911585479974747,-0.06855415552854538,-1922.1197509765625,-993.4553833007812,3004.27001953125,2926.496826171875,-876.4651489257812,-25.092994689941406,168.9270782470703,-9.600342750549316,0.30524444580078125,-0.42006614804267883,0.12334692478179932,18.194435119628906,-0.1263030469417572,-0.36778780817985535,0.21138350665569305,-8.813602447509766,8.23547077178955,12.388203620910645,-0.0,3103.3203125,2083.96630859375,3168.981201171875,1486.8245849609375
1761462602.7014587,14516211168466667019,476,33.0885124206543,32.34354782104492,54.426307678222656,55.24708938598633,8.982046127319336,5.881860256195068,20.320859909057617,52.50468444824219,42.29833221435547,136.53782653808594,-1011.0853271484375,1206.873046875,10.188255310058594,10.159509658813477,1.3776443985591413e-08,1.0430909469505423e-08,-0.2744639217853546,-0.27419406175613403,-0.9996827840805054,-0.9992130994796753,0.001609952189028263,-0.005900263320654631,-0.00797813106328249,-0.004899174906313419,-108.5284194946289,91.88218688964844,20.979211807250977,14.485912322998047,-3017.879638671875,-2953.8115234375,-2701.3984375,-2967.0537109375,0.3033409118652344,-0.06664519011974335,0.08437621593475342,15.5715970993042,-0.010949471965432167,-0.020238984376192093,-0.014721107669174671,-0.3037967383861542,-0.093471959233284,-0.8116201758384705,-0.0,2218.287109375,2069.693115234375,2837.901123046875,3247.379638671875
1761462603.703462,14516211168466667019,496,28.807783126831055,28.48246192932129,53.53351593017578,54.07795333862305,10.547562599182129,-0.13824552297592163,2.079606056213379,0.2619624137878418,698.24169921875,-414.4228820800781,212.16143798828125,-10.206897735595703,9.358473777770996,9.35849666595459,9.359251022338867,9.355759620666504,5.8020803407998756e-05,0.00010086925612995401,7.455774903064594e-05,6.909991952852579e-06,0.0017474036430940032,-0.004821892827749252,-0.0032494026236236095,-0.00031489512184634805,-325.8518981933594,757.0858764648438,191.83763122558594,173.5102081298828,-6.100111484527588,-10.816561698913574,-8.184165000915527,-0.873295783996582,0.3071022033691406,-0.016215916723012924,0.060037851333618164,9.352265357971191,-0.000704471196513623,-0.0016422884073108435,-0.011206058785319328,0.1922268271446228,0.012851105071604252,0.13045470416545868,-0.0,2564.62744140625,2526.88525390625,1979.368408203125,2308.545166015625
1761462604.7092361,14516211168466667019,516,29.567859649658203,27.45548439025879,54.01639938354492,53.59834671020508,30.63071060180664,-14.360127449035645,18.1328067779541,-17.042667388916016,-858.24658203125,1945.41259765625,-447.700439453125,466.64703369140625,8.526006698608398,8.56477165222168,8.523301124572754,8.56651782989502,0.00046099768951535225,-3.5275748814456165e-05,-0.00020016985945403576,0.0003750004689209163,0.0035948660224676132,-0.0028815511614084244,0.0054261269979178905,0.007458737585693598,-604.7612915039062,388.24713134765625,-689.2965087890625,-572.8096313476562,52.80124282836914,2.884402275085449,25.760055541992188,40.80287170410156,0.3085365295410156,0.036625541746616364,0.06149818003177643,8.541180610656738,0.04785669595003128,0.023209871724247932,-0.045567892491817474,-1.1365219354629517,-1.864725112915039,1.5899935960769653,-0.006583549082279205,2809.83984375,2255.33837890625,2370.264404296875,1899.0791015625
1761462605.760962,14516211168466667019,537,29.943836212158203,26.904157638549805,53.24379348754883,54.58530044555664,7.421956539154053,0.4538425803184509,-3.110116958618164,-1.6226211786270142,-100.39315032958984,121.35601806640625,-252.2239227294922,-124.20707702636719,7.827503204345703,7.82851505279541,7.827385425567627,7.824207782745361,0.00012706195411738008,0.00016126736591104418,0.0001158114755526185,0.00013428436068352312,0.0015187411336228251,-0.004821073263883591,-0.002977808006107807,-6.62138409097679e-05,-317.02008056640625,715.2708740234375,167.83053588867188,165.7561798095703,-14.545372009277344,-16.108369827270508,-12.087913513183594,18.44808578491211,0.30507659912109375,-0.01442206371575594,0.05638951063156128,7.821174144744873,-0.006020217668265104,-0.0013208480086177588,-0.019913265481591225,-0.12479972839355469,0.00011477281077532098,0.07094104588031769,-0.0,2760.505859375,2215.75146484375,1796.272216796875,2574.43408203125
1761462606.8010895,14516211168466667019,558,32.0366096496582,24.129051208496094,53.27025604248047,54.253929138183594,3.476562976837158,-6.708529472351074,-1.144989013671875,-0.975729763507843,144.70213317871094,-243.6190643310547,-21.827049255371094,-108.27156829833984,7.408886909484863,6.630468845367432,7.611502647399902,6.766714572906494,-0.014767562970519066,0.012133022770285606,-0.00015448049816768616,-1.5780155081301928e-05,0.0070586856454610825,0.0013688700273633003,0.04962339252233505,-0.0038341726176440716,-1097.3558349609375,-83.2789535522461,-2992.15478515625,411.62640380859375,-1822.12060546875,784.3766479492188,-11.358119010925293,-2.1345274448394775,0.3073921203613281,-0.8828430771827698,0.03672211244702339,6.9249348640441895,0.019089043140411377,-0.5445359349250793,0.02032008022069931,-0.032309044152498245,-0.5943410992622375,0.030335791409015656,0.3128088712692261,3385.463623046875,1358.489990234375,1935.209716796875,2413.57763671875
1761462607.8040788,14516211168466667019,578,29.205352783203125,27.478759765625,53.33427429199219,54.08294677734375,0.1821666806936264,0.1533329337835312,0.03688037022948265,0.00447034789249301,-4.170835494995117,0.9924163818359375,2.6285643577575684,0.8583067059516907,0.0,0.0,0.0,0.0,0.0016297029796987772,0.0016366038471460342,0.0016375004779547453,0.0016294289380311966,-0.0015903504099696875,-0.0015794383361935616,-0.001678292639553547,-0.0016831624088808894,-144.1416778564453,581.6463012695312,-64.65200805664062,83.71163177490234,-310.86651611328125,163.08468627929688,-190.88368225097656,83.64314270019531,0.3070259094238281,-0.004912486299872398,0.0001816296426113695,-0.005127571057528257,-0.0030616470612585545,0.0009578025783412158,-0.00019801015150733292,0.0016848043305799365,0.001058826339431107,-0.000613078533206135,-0.0,2494.1396484375,2311.244384765625,1858.426513671875,2275.994384765625
1761462608.8510418,14516211168466667019,599,29.977083206176758,34.27081298828125,53.35334777832031,53.19477844238281,-5.407896995544434,4.7253594398498535,-0.4231085777282715,0.5050562620162964,69.86553955078125,60.3160400390625,-1.717041015625,-2.601670026779175,14.460197448730469,13.718155860900879,2.1431779861450195,2.5580592155456543,2.3176188468933105,2.0774261951446533,-0.0018246285617351532,-0.002892334945499897,-0.06476819515228271,-0.06679262965917587,0.006690143141895533,-0.023382512852549553,90.06623077392578,405.1379089355469,-631.6829833984375,2019.51318359375,3083.703857421875,4079.823974609375,-202.4404296875,-267.49908447265625,0.3057098388671875,0.0963270515203476,0.010202700272202492,2.2802047729492188,-0.014011882245540619,0.26770415902137756,-0.021513791754841805,-0.013745907694101334,1.0600297451019287,-0.11383809894323349,-0.26495835185050964,2248.853515625,3100.0703125,1867.8778076171875,1771.579345703125
1761462609.851998,14516211168466667019,619,32.87097930908203,32.442405700683594,53.065460205078125,53.94428253173828,6.199478626251221,18.42878532409668,5.6708598136901855,-26.137231826782227,-138.75070190429688,627.5160522460938,439.74810791015625,-2866.731201171875,28.900617599487305,28.772886276245117,8.37821102142334,8.861462593078613,2.5310287475585938,2.3583850860595703,-0.0024082534946501255,-0.0021999392192810774,-0.12754037976264954,-0.1291814148426056,-0.007954595610499382,-0.004796246066689491,315.2789611816406,617.4472045898438,588.0870971679688,478.6368103027344,3478.81396484375,3652.8466796875,-232.7611541748047,-268.0444641113281,0.3037071228027344,-0.635213315486908,0.04916734993457794,8.633238792419434,-0.009707840159535408,0.2957908511161804,-0.03574979677796364,-0.40862512588500977,0.2767699658870697,0.9260015487670898,-0.0,2822.224365234375,2930.26611328125,1562.1829833984375,1973.7103271484375
1761462610.9007435,14516211168466667019,640,29.380746841430664,27.234764099121094,53.370540618896484,54.34959411621094,3.095604181289673,-0.24408100545406342,3.504082441329956,-2.545639753341675,215.67640686035156,-72.59397888183594,180.271240234375,-542.3560180664062,9.693426132202148,9.694397926330566,9.693720817565918,9.693792343139648,5.371200677473098e-05,7.87283934187144e-05,5.450113530969247e-05,-4.200921830488369e-05,0.002074740594252944,-0.004439941607415676,-0.002446036320179701,0.000517510692588985,-427.42645263671875,709.0723876953125,125.35830688476562,99.6651382446289,-6.509404182434082,-8.179704666137695,-6.248054504394531,-5.7593536376953125,0.3051300048828125,-0.012833232060074806,0.06375262141227722,9.687568664550781,0.011529629118740559,-0.0002118531265296042,-0.014889387413859367,-0.051902640610933304,0.016389120370149612,-0.056322306394577026,-0.0,2664.98193359375,2238.61572265625,1907.565673828125,2444.273681640625
1761462611.9040105,14516211168466667019,660,29.87493324279785,27.343442916870117,54.347930908203125,53.58736038208008,-5.057192802429199,7.563270092010498,13.206748962402344,7.004141330718994,404.6246032714844,-472.7057800292969,1388.01611328125,-33.00458908081055,8.930265426635742,8.638871192932129,8.989436149597168,8.63603687286377,-0.0020336639136075974,0.002576983068138361,-0.0001681538124103099,0.00027694692835211754,0.006173102650791407,-0.0002565867907833308,0.0157773420214653,0.00547737767919898,-1069.8929443359375,115.98970794677734,-2121.7041015625,-446.82391357421875,-260.423828125,259.7048645019531,-29.871440887451172,31.744348526000977,0.3066520690917969,-0.34409070014953613,0.06734053790569305,8.774538040161133,-0.004393917974084616,-0.22230246663093567,0.01009390503168106,0.6691985726356506,-1.299831509590149,-0.012847836129367352,0.09892331808805466,2869.650146484375,2146.216552734375,2578.8828125,1945.10693359375
1761462612.9479403,14516211168466667019,681,29.390783309936523,30.09286880493164,54.149269104003906,54.384796142578125,-58.99394226074219,22.3691463470459,49.15693664550781,-37.455684661865234,-2250.210693359375,-2516.8447265625,6953.43798828125,-5570.6806640625,7.399271011352539,7.22752571105957,7.454498767852783,7.241894721984863,-0.0016788480570539832,0.0017756499582901597,0.00071614736225456,-0.0002752322470769286,0.0023010047152638435,-0.004329364281147718,-0.00608854228630662,-0.011214477941393852,-435.42132568359375,799.8375244140625,352.1849365234375,1450.0277099609375,165.8403778076172,224.26222229003906,67.34976196289062,-46.767860412597656,0.30333709716796875,-0.22055073082447052,0.08736275136470795,7.320782661437988,-0.10320597887039185,-0.12654206156730652,-0.00045036617666482925,-1.356569766998291,1.9932057857513428,-1.0479785203933716,0.06341233849525452,2545.9482421875,2741.41357421875,2419.43017578125,2682.0888671875
1761462613.950915,14516211168466667019,701,30.003711700439453,27.438796997070312,53.79353332519531,54.48780822753906,56.93560028076172,-14.252032279968262,4.8951191902160645,13.222951889038086,6122.3095703125,-39.7078742980957,56.162532806396484,-2237.513916015625,6.1781206130981445,6.1805315017700195,6.169145584106445,6.179362773895264,0.00023320539912674576,2.6867450287682004e-05,4.700428689830005e-05,-0.0001540099474368617,0.0017268393421545625,-0.0041266861371695995,-0.0025222194381058216,0.00016739670536480844,-277.269775390625,675.481201171875,47.45359420776367,163.30142211914062,24.399812698364258,-2.862107992172241,-5.936065673828125,22.261886596679688,0.3062744140625,-0.010895038023591042,0.04831959307193756,6.167377471923828,0.00063333596335724,0.000229130731895566,0.017051998525857925,0.20345140993595123,0.33231624960899353,-0.30750781297683716,-0.0,3520.4169921875,2077.36767578125,1977.1668701171875,2647.71435546875
1761462615.0019004,14516211168466667019,722,33.968685150146484,21.870271682739258,51.72662353515625,55.93503952026367,41.444541931152344,-27.930482864379883,59.29502868652344,-3.154583215713501,6704.169921875,-1082.187255859375,4255.6845703125,-656.0064697265625,4.843024253845215,4.845173358917236,4.8500823974609375,4.849311351776123,0.00030408010934479535,0.0004691490903496742,0.0002720937773119658,0.00013389234663918614,0.0005892830668017268,-0.004564392380416393,-0.0017562423599883914,0.0004977366770617664,-161.30868530273438,441.5725402832031,76.4228515625,66.02838134765625,35.560455322265625,27.220426559448242,-18.414291381835938,14.82223892211914,0.3067588806152344,-0.016481563448905945,0.011972792446613312,4.831871509552002,0.06706848740577698,0.0011053120251744986,0.009641319513320923,-1.0925754308700562,0.13838650286197662,-0.956332266330719,-0.0,3953.04150390625,932.41357421875,1337.4212646484375,3617.633544921875
1761462616.0098717,14516211168466667019,742,24.644929885864258,33.40440368652344,55.61561584472656,52.66278076171875,-69.55671691894531,-0.8569676280021667,45.22380828857422,-3.830155849456787,-5966.63818359375,-3993.667236328125,-10.168848991394043,711.901123046875,3.347691297531128,3.337350606918335,3.346522808074951,3.3343706130981445,0.0007191157201305032,0.000269118434516713,-0.00026912137400358915,0.0003971308469772339,0.0021873093210160732,-0.001839011674746871,-0.0025654116179794073,-0.0008171331137418747,-169.41574096679688,250.9798583984375,73.4244613647461,96.41329956054688,-35.81444549560547,22.634414672851562,-34.69761657714844,26.594276428222656,0.306610107421875,-0.006201436743140221,0.058766044676303864,3.322852611541748,0.03761440888047218,-0.002671872265636921,0.01923202909529209,0.9814193844795227,-0.08293204754590988,-0.4415339231491089,-0.0,993.8432006835938,3106.33935546875,3164.502685546875,1770.24365234375
1761462617.0460155,14516211168466667019,763,30.408018112182617,25.383197784423828,52.98907470703125,54.65668487548828,-38.24126434326172,-5.136996746063232,21.464130401611328,7.578448295593262,-745.2193603515625,2426.83544921875,2133.72314453125,-628.9993896484375,1.9645484685897827,1.742651104927063,2.06349778175354,1.80319344997406,-0.0037092887796461582,0.0056275189854204655,-0.0002722937206272036,-0.000143167344504036,0.00012126068759243935,-0.0021976944990456104,0.013530272990465164,-0.012046490795910358,-42.26543045043945,237.279541015625,-1020.0261840820312,924.1806640625,-251.37579345703125,365.8218078613281,-20.239131927490234,-15.426836967468262,0.3059501647949219,-0.28321194648742676,0.015286194160580635,1.8238325119018555,-0.00816173106431961,-0.16623501479625702,-0.004756343085318804,0.8122986555099487,-0.20893292129039764,-0.9904668927192688,0.3403399884700775,2369.8642578125,1803.7327880859375,1917.2113037109375,2861.7919921875
1761462618.0561187,14516211168466667019,783,31.711790084838867,25.506380081176758,52.82294464111328,54.7266845703125,-2.380250930786133,-8.477195739746094,4.55186653137207,-17.829565048217773,-729.8932495117188,-1327.97705078125,336.1938171386719,-1334.3096923828125,0.7080748677253723,0.6228912472724915,0.7441473007202148,0.6540998220443726,-0.000875363068189472,0.0015452462248504162,-6.929640949238092e-05,0.00019170761515852064,-0.0011514103971421719,-0.002033600816503167,0.004153081215918064,-0.005426600109785795,91.85586547851562,200.55311584472656,-316.3481750488281,407.556884765625,-78.37114715576172,96.86775207519531,-4.8418707847595215,-20.73046875,0.3063621520996094,-0.10642557591199875,0.014276186935603619,0.6501004099845886,-0.009130151011049747,-0.05763879418373108,0.0026749426033347845,-1.272779107093811,0.08822697401046753,-0.25731736421585083,0.3403399884700775,2910.230224609375,1749.669921875,1576.355224609375,2577.094482421875
1761462619.0610833,14516211168466667019,803,32.978363037109375,25.089689254760742,52.90293884277344,54.991302490234375,-39.254905700683594,11.401280403137207,31.203189849853516,9.043831825256348,-2661.97509765625,2742.530517578125,2009.1617431640625,1749.658935546875,1.1237781047821045,1.1443456411361694,1.2024619579315186,1.048621416091919,0.00011906924919458106,0.018292250111699104,0.0003046809579245746,-0.00022767648624721915,-0.0009364347788505256,-0.002295652637258172,0.007015627808868885,-0.008158639073371887,55.58610916137695,237.92727661132812,-583.1622924804688,604.7003173828125,-11.452936172485352,-1150.9993896484375,-24.756702423095703,-26.835012435913086,0.30654144287109375,-0.16706880927085876,0.030548857524991035,1.0490548610687256,-0.04581292346119881,-0.09529836475849152,-0.0035148346796631813,-0.4190823435783386,-0.02738209441304207,-1.2650938034057617,0.3403399884700775,2923.74462890625,1829.2099609375,1910.092041015625,3081.371826171875
1761462620.107075,14516211168466667019,824,31.444046020507812,25.54318618774414,52.763221740722656,54.04903793334961,-6.997424125671387,8.025411605834961,0.7372133135795593,-0.6967447996139526,29.005247116088867,-35.4527587890625,-77.81465911865234,89.16366577148438,0.0,0.0,0.0,0.0,0.0009493042598478496,0.0007936758920550346,0.0009375775698572397,0.0007670706254430115,-0.0011492198100313544,-0.0011224764166399837,-0.0008707796223461628,-0.0008717478485777974,-127.08855438232422,368.5505676269531,-173.69932556152344,408.8733825683594,-336.1549072265625,219.82571411132812,253.8431854248047,-305.0451965332031,0.3079566955566406,-0.004743135534226894,0.004755314439535141,-0.0015777904773131013,0.007152323145419359,-0.0014248457737267017,-0.003833243390545249,0.06206108257174492,-0.033744510263204575,0.045428428798913956,0.015389594249427319,2908.765625,1923.4476318359375,1525.6533203125,2234.670654296875
1761462621.153704,14516211168466667019,845,30.379852294921875,25.89948272705078,52.69931411743164,54.49837875366211,-0.40180087089538574,-0.32613420486450195,-1.0920122861862183,-1.3479629755020142,-46.0958366394043,2.262152910232544,-25.90765380859375,1.457789659500122,0.0,0.0,0.0,0.0,0.0006615215097554028,0.0007026073872111738,0.0006677468190900981,0.0007041266653686762,-0.0008360915235243738,-0.0008314673323184252,-0.0008245541248470545,-0.0008266433142125607,-145.75669860839844,352.0904846191406,-183.85585021972656,422.6603088378906,-336.26129150390625,215.48391723632812,266.2546081542969,-336.2850341796875,0.3080101013183594,-0.004451155196875334,0.004380684345960617,-0.0009398093679919839,-0.004376682452857494,-0.0008054654463194311,-0.0033253110013902187,-0.022587206214666367,0.05119197070598602,0.020843911916017532,-0.0,2718.223388671875,1959.005859375,1491.985107421875,2516.9287109375
1761462622.1972682,14516211168466667019,866,30.76750946044922,26.1607666015625,52.68403244018555,54.42942810058594,-0.9739468693733215,0.7039373517036438,-0.21373896300792694,2.2483737468719482,-49.64079284667969,58.66851043701172,75.62152862548828,169.3994140625,0.0,0.0,0.0,0.0,0.0008191621745936573,0.0007367084035649896,0.000822356843855232,0.0007287567714229226,-0.0008222966571338475,-0.0008148143533617258,-0.00014542843564413488,-0.0001486143737565726,-158.52980041503906,353.6287841796875,-209.68057250976562,401.4862060546875,-338.59722900390625,225.50613403320312,273.63623046875,-334.6717529296875,0.30777740478515625,-0.005213788710534573,0.0011382184457033873,-0.0015456251567229629,-0.0034840439911931753,-0.002807755721732974,-0.0038990885950624943,0.008333081379532814,-0.15555121004581451,-0.034638501703739166,-0.0,2793.127685546875,2021.9544677734375,1503.6429443359375,2491.208984375
1761462623.2019374,14516211168466667019,886,30.598102569580078,25.819433212280273,52.821231842041016,54.46538162231445,-0.2619624137878418,3.392435312271118,-3.682002305984497,0.44926998019218445,-502.5318908691406,590.9844360351562,-536.1064453125,214.7644500732422,0.0,0.0,0.0,0.0,0.0006616641185246408,0.00038807952660135925,0.0006762710982002318,0.0003861431614495814,-0.0007216581725515425,-0.0007112358580343425,-0.00013081758515909314,-0.0001347794313915074,-153.9106903076172,357.989013671875,-232.3439483642578,393.37255859375,-347.4283447265625,207.08106994628906,279.9539794921875,-369.8009948730469,0.3078727722167969,-0.0005902615375816822,0.0013487605610862374,-0.0014681732282042503,-0.011940330266952515,0.00019958904886152595,-0.00458975275978446,-0.3656081557273865,-0.08016003668308258,0.12257038056850433,-0.0,2749.163818359375,1987.885986328125,1553.193115234375,2504.156005859375
1761462624.2063134,14516211168466667019,906,30.463010787963867,25.870956420898438,52.78950119018555,54.51078796386719,2.9636173248291016,-4.442967414855957,3.0928103923797607,-2.2269039154052734,197.30380249023438,-204.9242706298828,229.39886474609375,-78.38065338134766,0.0,0.0,0.0,0.0,0.0006976598524488509,0.0007156301871873438,0.0006993274437263608,0.0007107430137693882,-0.000744671851862222,-0.0007478492916561663,-0.0005760574131272733,-0.000575126672629267,-149.7200469970703,345.7185363769531,-216.17562866210938,412.41156005859375,-340.56744384765625,213.5794677734375,284.2807922363281,-340.743896484375,0.30789947509765625,-0.0014154500095173717,0.0002009404415730387,0.0012728406582027674,0.01830396056175232,0.002229224657639861,0.00819901842623949,0.6771341562271118,0.1567109227180481,0.21421687304973602,-0.0,2753.35107421875,1926.381103515625,1589.810302734375,2530.89990234375
1761462625.2466273,14516211168466667019,927,30.608211517333984,26.053598403930664,52.6312141418457,54.3924446105957,0.7752494812011719,1.1058413982391357,-0.6998687982559204,0.3340182304382324,29.94144630432129,113.68048095703125,-67.7279281616211,74.80462646484375,0.0,0.0,0.0,0.0,0.0007671097409911454,0.0007916045724414289,0.0007724539027549326,0.0007902000797912478,-0.0009489944204688072,-0.000943128252401948,-0.000587635557167232,-0.0005901984986849129,-138.20529174804688,360.90582275390625,-190.45860290527344,418.9693603515625,-338.43780517578125,223.35670471191406,263.5833740234375,-326.0392761230469,0.3079414367675781,-0.005799607839435339,0.004199834540486336,-0.0014956322265788913,-0.001944465795531869,-0.0028631342574954033,-0.0033100068103522062,-0.0022680454421788454,-0.09694870561361313,0.13562580943107605,-0.0,2773.021484375,2008.3623046875,1450.30712890625,2453.97509765625
1761462626.2515945,14516211168466667019,947,30.478490829467773,26.03550148010254,52.75054168701172,54.59184646606445,-4.135407447814941,2.379566192626953,-1.2190638780593872,2.453103542327881,68.0610122680664,-114.89244079589844,60.92637634277344,-34.90894317626953,0.0,0.0,0.0,0.0,0.0007830263348296285,0.0007326345657929778,0.0007837015436962247,0.0007244108710438013,-0.0007460608030669391,-0.0007363114855252206,-0.0005758233601227403,-0.0005799796781502664,-151.192626953125,348.5298156738281,-204.59097290039062,427.7237854003906,-334.1668395996094,219.41485595703125,279.0616455078125,-344.96002197265625,0.3077888488769531,-0.004394238349050283,0.0022269762121140957,-0.0013320243451744318,-0.011656704358756542,-0.0013694684021174908,-0.0046540359035134315,0.09587052464485168,-0.02170168235898018,-0.05241838097572327,-0.0,2722.41015625,1987.2020263671875,1551.144287109375,2603.35009765625
1761462627.2545536,14516211168466667019,967,30.60715675354004,25.942502975463867,52.62791061401367,54.30635452270508,0.9526311755180359,-0.42144206166267395,0.6303190588951111,-0.35449859499931335,-18.715112686157227,-58.31792449951172,28.511877059936523,-14.819202423095703,0.0,0.0,0.0,0.0,0.000697525916621089,0.0008519350667484105,0.0006982654449529946,0.0008509974577464163,-0.0008622775203548372,-0.0008580971625633538,-0.00106603535823524,-0.0010679301340132952,-142.80746459960938,350.22637939453125,-167.9813690185547,424.05908203125,-343.9231262207031,220.90452575683594,258.3626708984375,-308.7972717285156,0.3080482482910156,-0.005711814388632774,0.0029844341333955526,-0.0013014059513807297,0.000412614899687469,-0.002361196093261242,-0.004167118109762669,-0.14072006940841675,0.001898556831292808,-0.07995326817035675,-0.0,2772.4716796875,1969.1976318359375,1447.6767578125,2400.06982421875
1761462628.2984958,14516211168466667019,988,30.64224624633789,25.982973098754883,52.650638580322266,54.34129333496094,-0.30275431275367737,1.1401622295379639,-0.036656852811574936,1.2946127653121948,-34.81507110595703,78.40095520019531,-42.150909423828125,66.63947296142578,0.0,0.0,0.0,0.0,0.0007264945888891816,0.0008897692314349115,0.0007256144308485091,0.0008870395831763744,-0.0008927338058128953,-0.0008855165797285736,-0.001045238459482789,-0.0010482417419552803,-145.6897430419922,352.09271240234375,-166.97250366210938,434.8675231933594,-341.461181640625,225.50807189941406,262.025146484375,-309.3033142089844,0.3079681396484375,-0.005622860509902239,0.002633002819493413,-0.0019643099512904882,0.0005897348164580762,-0.00300890882499516,-0.0018295590998604894,0.102321557700634,-0.02563466690480709,0.12024018168449402,-0.0,2775.12255859375,1988.6229248046875,1464.114501953125,2434.523193359375
1761462629.3009663,14516211168466667019,1008,30.387306213378906,26.052709579467773,52.705169677734375,54.59239196777344,-1.3023241758346558,-0.03721564635634422,-1.2233107089996338,-0.9128450751304626,96.49244689941406,-99.14784240722656,12.324749946594238,-94.9636001586914,0.0,0.0,0.0,0.0,0.0007681342540308833,0.0007635614601895213,0.0007733696256764233,0.0007617772789672017,-0.0008370947325602174,-0.0008324117516167462,-0.0006665969267487526,-0.0006687177810817957,-149.96397399902344,348.913330078125,-193.21749877929688,434.0912780761719,-335.9542541503906,220.28378295898438,272.1890869140625,-337.2715759277344,0.30785369873046875,-0.0028477590531110764,7.748074131086469e-05,-0.0023327674716711044,0.00907898135483265,-0.0001713703532004729,0.00868438370525837,0.9796716570854187,0.07468143850564957,0.7684847116470337,-0.0,2718.870849609375,1986.0517578125,1508.750244140625,2579.656005859375
1761462630.345971,14516211168466667019,1029,30.505870819091797,26.079317092895508,52.64939498901367,54.49432373046875,-2.612136125564575,2.3583321571350098,-0.5433708429336548,2.498924493789673,-35.68007278442383,96.47234344482422,38.623802185058594,48.40045166015625,0.0,0.0,0.0,0.0,0.00075685721822083,0.0007889994303695858,0.0007571449386887252,0.0007817807490937412,-0.0008198881987482309,-0.0008114218362607062,-0.0007719388813711703,-0.0007755502592772245,-154.7015838623047,349.6187438964844,-184.0421905517578,435.73236083984375,-340.7900390625,222.98033142089844,267.29144287109375,-330.8498840332031,0.3078804016113281,-0.005652274936437607,0.003989158198237419,-0.0014836809132248163,0.001190502312965691,-0.0027533271349966526,-0.0027829199098050594,0.6777661442756653,-0.06769799441099167,0.1335553675889969,-0.0,2736.65966796875,2008.7532958984375,1480.5302734375,2536.935546875
1761462631.3609233,14516211168466667019,1049,30.43678092956543,26.0078182220459,52.75272750854492,54.591094970703125,-3.750063180923462,2.1557137966156006,-1.3069062232971191,1.511648178100586,70.51527404785156,-104.36473083496094,47.086185455322266,-79.44702911376953,0.0,0.0,0.0,0.0,0.0007744103786535561,0.0007577319629490376,0.0007758992142044008,0.0007517862250097096,-0.0007435756851918995,-0.0007344254408963025,-0.0007575968629680574,-0.0007615278591401875,-152.7388153076172,344.4241943359375,-192.92295837402344,435.3185729980469,-334.7766418457031,219.34751892089844,277.2518310546875,-338.2250061035156,0.3078117370605469,-0.004564724396914244,0.0033352996688336134,-0.0013607749715447426,-0.010242470540106297,-0.001407182076945901,-0.004535201471298933,0.11801109462976456,0.009583154693245888,-0.03954894468188286,-0.0,2717.34326171875,1980.225341796875,1546.575439453125,2599.2568359375
1761462632.4054453,14516211168466667019,1070,30.680469512939453,25.95199966430664,52.75572204589844,54.43501663208008,-4.978291034698486,3.1016392707824707,-2.783015251159668,4.990696430206299,-388.74591064453125,217.2253875732422,-125.78218078613281,443.9859924316406,0.0,0.0,0.0,0.0,0.0007977018831297755,0.0006422990118153393,0.0008015750790946186,0.000630998401902616,-0.000921063416171819,-0.0009054333786480129,-0.000266780611127615,-0.00027267361292615533,-140.80503845214844,357.9300231933594,-212.58157348632812,409.61468505859375,-335.2820739746094,216.1361541748047,276.1991271972656,-343.8892822265625,0.30783843994140625,-0.0016078953631222248,-0.0010663737775757909,-0.001364010269753635,-0.013185909949243069,-0.00176525441929698,-0.003999275621026754,-0.09041295945644379,-0.12509594857692719,0.01147803757339716,-0.0,2736.42724609375,1989.4375,1534.7421875,2514.207275390625
1761462633.4063156,14516211168466667019,1090,30.58386993408203,25.80035400390625,52.855228424072266,54.45640563964844,8.226447105407715,-7.4065842628479,5.770995616912842,-3.883615016937256,375.5092468261719,-211.45191955566406,210.28514099121094,-133.6544647216797,0.0,0.0,0.0,0.0,0.0007580554811283946,0.00046486410428769886,0.0007662688149139285,0.0004532733582891524,-0.0008406188571825624,-0.0008512194035574794,0.000356190896127373,0.00035946103162132204,-147.902099609375,352.0164794921875,-266.3023986816406,359.7423095703125,-345.66131591796875,201.04945373535156,296.8136901855469,-357.6622619628906,0.3078460693359375,-0.0011848791036754847,-0.002934936201199889,0.0016668470343574882,0.009958460927009583,0.002092186361551285,0.005469176918268204,-0.5561987161636353,-0.043981000781059265,-0.2001940906047821,-0.0,2802.57373046875,1906.574462890625,1643.8822021484375,2483.3408203125
1761462634.4511013,14516211168466667019,1111,30.77288055419922,25.868947982788086,52.81631088256836,54.342472076416016,1.624524474143982,-0.45530495047569275,-0.7579475045204163,-2.317875385284424,-55.31385040283203,44.29667282104492,-231.79647827148438,-188.65313720703125,0.0,0.0,0.0,0.0,0.0006173949223011732,0.0005856032948940992,0.0006233514868654311,0.000584048219025135,-0.0008557973196730018,-0.0008512820350006223,-0.0008942557033151388,-0.0008963039144873619,-148.94570922851562,351.0684509277344,-185.7212371826172,415.81787109375,-354.42938232421875,210.14437866210938,269.6116027832031,-324.71807861328125,0.3078460693359375,-0.0029444394167512655,0.0021398356184363365,-0.0012608002871274948,-0.012353552505373955,0.0003729680029209703,-0.00402097636833787,-1.1241815090179443,0.1162307932972908,-0.14044791460037231,-0.0,2807.97119140625,1952.490478515625,1556.494873046875,2419.814208984375
1761462635.4952524,14516211168466667019,1132,30.666259765625,26.093364715576172,52.68769073486328,54.41386795043945,1.7266719341278076,-0.3386288583278656,1.652687668800354,-1.060590147972107,296.9808654785156,-141.432861328125,69.60330963134766,-292.5216979980469,0.0,0.0,0.0,0.0,0.0007492868462577462,0.000892181764356792,0.0007478357874788344,0.0008887719013728201,-0.0008089674520306289,-0.0008067297167144716,-0.0009732051403261721,-0.0009743827977217734,-157.54234313964844,347.55029296875,-174.64393615722656,430.5950012207031,-347.7456359863281,227.7566680908203,268.0362243652344,-304.421142578125,0.3078155517578125,-0.00551718520000577,0.005453096702694893,-0.0006475509726442397,-0.0011828108690679073,-0.0019664419814944267,-0.005642051342874765,-0.2501008212566376,0.049531664699316025,-0.20314915478229523,-0.0,2803.75439453125,1995.937255859375,1502.0859375,2471.2080078125
1761462636.5090358,14516211168466667019,1152,30.45660400390625,26.002017974853516,52.772342681884766,54.6042366027832,-3.9451942443847656,3.6864726543426514,-1.8189846277236938,2.937242269515991,19.332015991210938,-45.09465408325195,23.88507080078125,-2.8431413173675537,0.0,0.0,0.0,0.0,0.0007936472538858652,0.0006729568704031408,0.0007971586310304701,0.0006650665891356766,-0.0006539244786836207,-0.0006432785885408521,-0.0003097121953032911,-0.00031424700864590704,-157.1182861328125,343.0170593261719,-221.70416259765625,401.9356689453125,-333.33941650390625,217.91162109375,284.9634094238281,-345.9079895019531,0.3077583312988281,-0.004260896705091,0.0030018070247024298,-0.001320905750617385,-0.011904518119990826,-0.0016440085601061583,-0.0045026266016066074,0.10970848798751831,-0.0926617905497551,-0.01753820851445198,-0.0,2721.187255859375,1989.828369140625,1566.719482421875,2610.271240234375
1761462637.5541685,14516211168466667019,1173,30.622249603271484,25.825672149658203,52.79225540161133,54.38924026489258,2.955570697784424,2.819448471069336,-2.838000535964966,-2.3578851222991943,-319.0152282714844,564.6719360351562,-538.43994140625,26.00400733947754,0.0,0.0,0.0,0.0,0.0006132061243988574,0.000495113548822701,0.0006283324910327792,0.0005006279679946601,-0.0008110873750410974,-0.0008041021064855158,-0.000725043355487287,-0.0007278549019247293,-152.84854125976562,352.37298583984375,-195.19496154785156,404.454833984375,-354.65618896484375,209.7262420654297,268.1454772949219,-336.8968200683594,0.3078956604003906,-0.003390575759112835,0.0045652189292013645,-0.0014558025868609548,3.010961700056214e-05,-0.0011748939286917448,0.0011369520798325539,-0.07503645122051239,-0.03019288368523121,0.4982437491416931,-0.0,2781.91552734375,1988.47607421875,1520.65478515625,2442.1240234375
1761462638.5550115,14516211168466667019,1193,30.68644905090332,25.96078872680664,52.78398513793945,54.46138381958008,-4.936269760131836,2.2479145526885986,-2.681985378265381,4.327520847320557,-406.87762451171875,119.66674041748047,-20.25067710876465,430.64202880859375,0.0,0.0,0.0,0.0,0.0008569606579840183,0.0005984338349662721,0.000864192028529942,0.0005870230379514396,-0.0008265006472356617,-0.0008123485022224486,0.00016402004985138774,0.000158572438522242,-149.50730895996094,346.3424987792969,-233.3699951171875,377.9307556152344,-331.2269287109375,217.6143341064453,282.1050720214844,-341.81353759765625,0.3077850341796875,-0.0008323726942762733,-0.0003036757989320904,-0.0011255565332248807,-0.013117498718202114,-0.0022211456671357155,-0.005029757507145405,-0.16003796458244324,-0.20674839615821838,-0.13720479607582092,-0.0,2738.8759765625,1980.53515625,1558.841796875,2524.830078125
1761462639.5995784,14516211168466667019,1214,30.401182174682617,25.97771644592285,52.784461975097656,54.62179946899414,-4.162788391113281,3.011003017425537,-2.5029478073120117,1.0588020086288452,-7.282189846038818,-107.27494049072266,33.7421875,-126.07720947265625,0.0,0.0,0.0,0.0,0.0007707723416388035,0.000793500104919076,0.0007742946036159992,0.0007924486417323351,-0.000607892987318337,-0.0005981698050163686,-0.0008371457224711776,-0.0008413101895712316,-161.7219696044922,336.5965270996094,-195.46714782714844,419.9432678222656,-336.6715393066406,222.77259826660156,281.5260925292969,-330.5096435546875,0.30777740478515625,-0.0036437709350138903,0.0037408035714179277,-0.0013510531280189753,-0.0082091661170125,-0.00033499873825348914,-0.002704954706132412,0.3036164939403534,0.06035829707980156,0.12183573096990585,-0.0,2709.85205078125,1979.7816162109375,1560.8714599609375,2612.01953125
1761462640.6444316,14516211168466667019,1235,30.477819442749023,26.096599578857422,52.751121520996094,54.621158599853516,-3.7613508701324463,2.1187214851379395,-1.6209481954574585,1.8080322742462158,41.50049591064453,-64.7149887084961,6.866454601287842,-52.12872314453125,0.0,0.0,0.0,0.0,0.0008078729151748121,0.0007011900888755918,0.0008113104267977178,0.0006929552764631808,-0.0007851265836507082,-0.0007759540458209813,-0.0005083885043859482,-0.0005123798036947846,-155.58021545410156,345.2860412597656,-207.96070861816406,416.0622863769531,-333.35626220703125,221.67391967773438,280.5994567871094,-343.7144470214844,0.3077125549316406,-0.004368981812149286,0.0035157252568751574,-0.0011759893968701363,-0.010801682248711586,-0.0012258808128535748,-0.004985304083675146,0.1508706659078598,-0.0456218458712101,-0.02453712560236454,-0.0,2722.81494140625,2002.7308349609375,1548.910888671875,2615.510986328125
1761462641.6586459,14516211168466667019,1255,30.612096786499023,25.80312728881836,52.88735580444336,54.460289001464844,8.194819450378418,-6.182267665863037,4.9044189453125,-3.4911184310913086,261.9110107421875,20.197046279907227,17.662353515625,-40.08561706542969,0.0,0.0,0.0,0.0,0.0007599187665618956,0.0005853484617546201,0.0007663175347261131,0.0005774131277576089,-0.0007525633554905653,-0.0007606365834362805,0.0001092491002054885,0.00011149138299515471,-156.1457061767578,345.93072509765625,-257.3329772949219,363.5618896484375,-344.8862609863281,210.31419372558594,300.31591796875,-350.5040283203125,0.3077812194824219,-0.001665761461481452,0.00407200213521719,0.00012546134530566633,-0.00760104414075613,0.0010638085659593344,-0.006959492340683937,-1.533251166343689,-0.047079022973775864,-0.8759726881980896,-0.0,2807.947021484375,1922.25341796875,1656.437255859375,2493.170166015625
1761462642.6982348,14516211168466667019,1276,30.427661895751953,25.89200782775879,52.80464172363281,54.5404167175293,3.6426632404327393,-6.024352550506592,3.9902329444885254,-2.978592872619629,288.7532043457031,-388.35028076171875,317.1041564941406,-109.09883880615234,0.0,0.0,0.0,0.0,0.0007238936959765851,0.0008026586729101837,0.0007236567325890064,0.0007980561931617558,-0.0008005562704056501,-0.0008054846548475325,-0.0007656441885046661,-0.000763951800763607,-142.35340881347656,345.3067932128906,-207.5669403076172,405.92535400390625,-336.4236145019531,216.17919921875,286.30438232421875,-329.7895202636719,0.3078346252441406,-0.001271203625947237,-0.0007104541873559356,0.00022549099230673164,0.01750270463526249,0.0022746450267732143,0.00738052511587739,0.5071098804473877,0.18230244517326355,0.03483133018016815,-0.0,2748.6689453125,1914.91162109375,1606.435546875,2547.996337890625
1761462643.755263,14516211168466667019,1297,30.43817710876465,25.902009963989258,52.7226676940918,54.508888244628906,-4.082210540771484,3.0478832721710205,-2.131909132003784,4.294887065887451,-127.30435943603516,114.24197387695312,-9.13292121887207,286.2989807128906,0.0,0.0,0.0,0.0,0.0007828742382116616,0.0007062041549943388,0.0007862778147682548,0.0006981490878388286,-0.0008432373288087547,-0.0008313813013955951,-0.00023839138157200068,-0.00024326147104147822,-140.34942626953125,352.6067199707031,-218.19898986816406,380.8991394042969,-327.78839111328125,218.40525817871094,275.5318298339844,-341.9181213378906,0.3079032897949219,-0.0032106421422213316,-0.0002571277436800301,-0.0013641584664583206,-0.012474642135202885,-0.001297337468713522,-0.003008956089615822,0.01162011083215475,-0.10518130660057068,0.05915703624486923,-0.0,2704.32421875,1974.89697265625,1526.3828125,2549.0107421875
1761462644.801747,14516211168466667019,1318,30.530223846435547,25.88705825805664,52.75848388671875,54.477657318115234,-3.74726939201355,2.465843915939331,-2.364814043045044,3.8728861808776855,-204.83358764648438,83.31610107421875,-30.255308151245117,364.8206481933594,0.0,0.0,0.0,0.0,0.0008099712431430817,0.0006528266239911318,0.0008161179139278829,0.00064425467280671,-0.0009386661113239825,-0.0009261320228688419,-0.00016623905685264617,-0.00017125715385191143,-136.7949676513672,356.49774169921875,-222.68765258789062,380.1595153808594,-326.1701965332031,214.9536590576172,279.2419128417969,-344.6774597167969,0.30786895751953125,-0.0019868689123541117,-0.00063090689945966,-0.001221569487825036,-0.013531475327908993,-0.0007167919538915157,-0.003557835938408971,-0.19819389283657074,-0.09747493267059326,-0.029282834380865097,-0.0,2718.32568359375,1969.5537109375,1543.859375,2530.77294921875
1761462645.8483443,14516211168466667019,1339,30.697118759155273,26.04058837890625,52.749717712402344,54.4657096862793,-4.873014450073242,1.8171964883804321,-2.3829190731048584,4.522874355316162,-367.294921875,107.91867065429688,-33.380088806152344,431.4466552734375,0.0,0.0,0.0,0.0,0.0008184470934793353,0.0005921965348534286,0.0008239920134656131,0.0005790548748336732,-0.0009517061989754438,-0.0009385050507262349,3.778667814913206e-05,3.259456207160838e-05,-146.89637756347656,355.88409423828125,-224.85475158691406,379.43450927734375,-331.6692199707031,218.4591064453125,274.5030822753906,-347.37548828125,0.3077545166015625,-0.001812840928323567,-0.0003329316677991301,-0.0011400722432881594,-0.010887340642511845,-0.003070663893595338,-0.0052197519689798355,-0.0032073629554361105,-0.2494523525238037,-0.11952643096446991,-0.0,2740.308349609375,1995.90673828125,1538.7098388671875,2526.455078125
1761462646.8952703,14516211168466667019,1360,30.466724395751953,25.94597816467285,52.59015655517578,54.342586517333984,1.0413676500320435,-0.379085510969162,0.037997957319021225,-0.9881705045700073,-12.592963218688965,-31.998748779296875,17.66234588623047,-7.818642616271973,0.0,0.0,0.0,0.0,0.0006829386693425477,0.0007687250035814941,0.0006878133863210678,0.0007689690683037043,-0.0009645189275033772,-0.0009609839762561023,-0.001001958386041224,-0.0010035770246759057,-145.81411743164062,352.1217346191406,-166.61517333984375,415.9040832519531,-339.3516845703125,219.98365783691406,251.28843688964844,-312.314208984375,0.308074951171875,-0.005672958213835955,0.004577301442623138,-0.0008882374386303127,0.0005441360408440232,-0.0019414668204262853,-0.004776887129992247,0.01870993711054325,0.008904283866286278,-0.019027085974812508,-0.0,2745.537109375,1971.309326171875,1419.28125,2413.791259765625
1761462647.8972173,14516211168466667019,1380,30.416156768798828,26.10170555114746,52.726715087890625,54.62200927734375,-2.167224884033203,0.4022195637226105,-1.4964489936828613,-0.2409517616033554,105.93383026123047,-111.23789978027344,33.031410217285156,-85.13330078125,0.0,0.0,0.0,0.0,0.0008116942481137812,0.0006952960975468159,0.000818604719825089,0.0006902205641381443,-0.0008746457751840353,-0.0008687247755005956,-0.0004796852299477905,-0.00048235603026114404,-154.16693115234375,352.9026794433594,-205.0474090576172,417.8103942871094,-330.7337341308594,219.97840881347656,275.34710693359375,-340.98114013671875,0.30774688720703125,-0.0037041674368083477,0.0006290285964496434,-0.000771939754486084,0.006289994344115257,-0.0010258075781166553,0.006350751034915447,0.9606849551200867,-0.030436009168624878,0.6418840885162354,-0.0,2720.235107421875,1997.2235107421875,1527.12890625,2602.01953125
1761462648.9579403,14516211168466667019,1401,30.34834861755371,25.972213745117188,52.69784164428711,54.55006790161133,-2.0110979080200195,1.6859917640686035,-0.581815779209137,0.937655508518219,94.01811218261719,-41.748573303222656,56.514137268066406,-87.31930541992188,0.0,0.0,0.0,0.0,0.000746864068787545,0.0008433732436969876,0.000747326179407537,0.0008400277583859861,-0.0007987613207660615,-0.0007916131871752441,-0.000982410740107298,-0.0009855314856395125,-153.7144012451172,346.29351806640625,-177.76852416992188,428.8297424316406,-333.1083984375,223.91990661621094,267.7317810058594,-320.5477294921875,0.3078804016113281,-0.005654345266520977,0.005652827210724354,-0.0011974010849371552,-0.002811625599861145,-0.0022743537556380033,-0.0040908083319664,0.39365559816360474,-0.012428754940629005,-0.01337368879467249,-0.0,2711.9892578125,1978.766357421875,1510.300537109375,2566.959716796875
1761462649.9996047,14516211168466667019,1422,30.657989501953125,26.081764221191406,52.68918991088867,54.409690856933594,0.3816559612751007,-0.12014060467481613,-1.0288506746292114,-0.9213387370109558,-21.497901916503906,-18.969921112060547,-144.6381072998047,-38.10077667236328,0.0,0.0,0.0,0.0,0.0007337971474044025,0.0008227964281104505,0.0007375733111985028,0.0008223003824241459,-0.0010102292289957404,-0.001005123252980411,-0.0009304117993451655,-0.0009326675208285451,-147.6112060546875,358.4549255371094,-170.5147705078125,426.8800354003906,-341.2463684082031,226.05584716796875,260.3779602050781,-313.1148986816406,0.3078117370605469,-0.004578738939017057,0.0026658466085791588,-0.0011761179193854332,-0.009246932342648506,-0.0006808802136220038,-0.004866864997893572,-0.5295725464820862,0.08952852338552475,-0.008055008016526699,-0.0,2778.135498046875,2002.72314453125,1478.4949951171875,2463.060791015625
1761462651.004093,14516211168466667019,1442,30.35165023803711,25.93975830078125,52.68089294433594,54.5042610168457,-0.15579162538051605,0.07342546433210373,-1.0348856449127197,-0.9497254490852356,78.266845703125,-26.600807189941406,0.013411044143140316,-46.683841705322266,0.0,0.0,0.0,0.0,0.0007242191350087523,0.0007832078263163567,0.0007298514246940613,0.0007841144688427448,-0.0008919952670112252,-0.0008876908686943352,-0.0007986241835169494,-0.0008005853742361069,-146.2713623046875,352.164306640625,-185.7650604248047,413.1791076660156,-330.9942321777344,217.68569946289062,264.742919921875,-322.2436828613281,0.3079414367675781,-0.005055261310189962,0.005593208596110344,-0.0006130257970653474,-0.003906062338501215,-0.0016020118491724133,-0.004069837741553783,0.02232838235795498,-0.014322862960398197,-0.003839637851342559,-0.0,2718.603515625,1970.2103271484375,1486.895263671875,2518.9794921875
1761462652.0066693,14516211168466667019,1462,30.671340942382812,26.070369720458984,52.63754653930664,54.35396194458008,1.489408254623413,1.368038296699524,-0.24408100545406342,0.8104740977287292,73.80097198486328,154.2202911376953,-50.03660202026367,101.13267517089844,0.0,0.0,0.0,0.0,0.000810014724265784,0.0007508129347115755,0.0008167023188434541,0.0007466647075489163,-0.0010038184700533748,-0.000997997121885419,-0.0003846659092232585,-0.0003872159286402166,-146.41188049316406,360.0885009765625,-196.0903778076172,397.0013732910156,-335.70941162109375,221.03770446777344,263.5953674316406,-320.67108154296875,0.3078651428222656,-0.0052293213084340096,0.005155688151717186,-0.0011007398134097457,0.004528329707682133,-0.002345454879105091,-0.002207770710811019,0.28342577815055847,-0.10374690592288971,0.18140827119350433,-0.0,2793.36376953125,2015.6279296875,1457.4306640625,2431.7275390625
1761462653.0473585,14516211168466667019,1483,30.46318817138672,26.05306053161621,52.76338195800781,54.60136032104492,-4.005096912384033,3.0393896102905273,-1.9586831331253052,1.8824635744094849,-8.562970161437988,-87.8758544921875,22.02092742919922,-14.175474166870117,0.0,0.0,0.0,0.0,0.0008118809200823307,0.0007007636013440788,0.0008168134372681379,0.0006948785157874227,-0.0007839532918296754,-0.0007735950639471412,-0.000623983156401664,-0.0006284110713750124,-155.31549072265625,348.9014587402344,-198.55258178710938,422.0061340332031,-329.4784851074219,216.41798400878906,277.4085693359375,-341.4315185546875,0.3077125549316406,-0.0035159136168658733,0.0024636387825012207,-0.0012121148174628615,-0.012582458555698395,-0.00036449168692342937,-0.004686204716563225,0.08854999393224716,0.025594161823391914,0.02009684033691883,-0.0,2721.844482421875,1996.0257568359375,1551.611572265625,2604.522216796875
1761462654.049815,14516211168466667019,1503,30.546207427978516,25.985122680664062,52.67037582397461,54.412662506103516,0.0,0.0,0.0,0.0,-110.7483901977539,73.60650634765625,50.733978271484375,164.982666015625,0.0,0.0,0.0,0.0,0.0007456163293682039,0.0009093779954127967,0.0007390955579467118,0.000899999518878758,-0.0007572696777060628,-0.0007468336843885481,-0.0009194975136779249,-0.0009237159392796457,-160.01412963867188,342.2193603515625,-176.6376495361328,427.6239318847656,-333.38653564453125,225.07566833496094,265.3241882324219,-314.9471435546875,0.30788421630859375,-0.004743413999676704,0.0024430181365460157,-0.0017924606800079346,0.007227770984172821,-0.002719081472605467,-0.0006227166159078479,0.9447597861289978,-0.02367645874619484,0.12431705743074417,-0.0,2740.221435546875,1986.54296875,1499.41796875,2500.0673828125
1761462655.0543425,14516211168466667019,1523,30.374998092651367,26.026044845581055,52.731475830078125,54.600303649902344,-1.820214033126831,0.9023397564888,-1.3840197324752808,0.7371603846549988,114.00057220458984,-93.2000503540039,33.78242111206055,-2.0116567611694336,0.0,0.0,0.0,0.0,0.0008216418791562319,0.0007668010657653213,0.0008269099635072052,0.0007628209423273802,-0.0008839382790029049,-0.0008769591804593801,-0.0004859789914917201,-0.0004890855634585023,-145.8658905029297,357.2063293457031,-207.98321533203125,410.55731201171875,-326.24896240234375,217.86538696289062,277.5858154296875,-339.2433166503906,0.3077812194824219,-0.004795103333890438,0.00479009049013257,-0.0007605560822412372,-0.007667992264032364,-0.0018433157820254564,-0.004844461102038622,0.12150506675243378,-0.08729642629623413,-0.07016327232122421,-0.0,2712.887939453125,1987.405029296875,1533.065673828125,2593.85791015625
1761462656.0553303,14516211168466667019,1544,30.53551483154297,26.072065353393555,52.65902328491211,54.45738220214844,-0.9695067405700684,2.739205837249756,-1.2624262571334839,1.0992586612701416,-2.9571352005004883,213.8592071533203,-42.58005905151367,39.38823699951172,0.0,0.0,0.0,0.0,0.000748972175642848,0.0007546234410256147,0.0007542469538748264,0.0007519333739764988,-0.000922608480323106,-0.0009143876377493143,-0.0008129944326356053,-0.0008165038307197392,-154.1344757080078,357.2237548828125,-178.31825256347656,419.8508605957031,-336.521728515625,219.50608825683594,261.61773681640625,-323.4808349609375,0.3078346252441406,-0.005724527407437563,0.005213940050452948,-0.0014814567985013127,0.00045111728832125664,-0.0028679657261818647,-0.0026878896169364452,0.46990102529525757,-0.08638809621334076,0.2340167760848999,-0.0,2754.78369140625,2017.74755859375,1471.556640625,2503.007080078125
1761462657.0595286,14516211168466667019,1564,30.3793888092041,25.912364959716797,52.707305908203125,54.497840881347656,-1.1613963842391968,0.19378958642482758,-1.120492696762085,0.12606382369995117,-25.15241050720215,24.750080108642578,20.38478660583496,82.86683654785156,0.0,0.0,0.0,0.0,0.000741412048228085,0.0007169468444772065,0.0007474286248907447,0.0007143719121813774,-0.0009010452777147293,-0.0008948483155108988,-0.0006288433796726167,-0.0006315857754088938,-146.3168487548828,352.3805236816406,-194.53590393066406,407.4039611816406,-329.43994140625,213.3369903564453,267.93572998046875,-332.5561828613281,0.3079185485839844,-0.005380530841648579,0.00426935451105237,-0.0012892034137621522,-0.0066353376023471355,-0.002159946132451296,-0.004699228797107935,-0.06008036062121391,-0.08908993005752563,-0.10177072882652283,-0.0,2712.85595703125,1962.9671630859375,1507.3055419921875,2525.102294921875
1761462658.1082306,14516211168466667019,1585,30.61728858947754,25.804298400878906,52.8648681640625,54.4259033203125,0.14472751319408417,0.8198618292808533,-2.679079532623291,-3.386288642883301,-269.421142578125,182.69195556640625,-333.4789733886719,-176.5161590576172,0.0,0.0,0.0,0.0,0.000600899220444262,0.000570235657505691,0.0006119318422861397,0.0005744254449382424,-0.0008496700902469456,-0.0008423625840805471,-0.0012165532680228353,-0.001219558878801763,-154.17889404296875,348.9048156738281,-169.19305419921875,425.2126770019531,-344.9517517089844,204.896728515625,264.90057373046875,-324.40887451171875,0.3078041076660156,-0.0012273848988115788,0.002682523336261511,-0.0017076543299481273,-0.007972439751029015,0.0019287923350930214,-0.0010252991924062371,-0.591237485408783,0.23175404965877533,0.1471952646970749,-0.0,2764.781005859375,1947.901123046875,1570.062255859375,2469.85888671875
1761462659.1561692,14516211168466667019,1606,30.572498321533203,26.091407775878906,52.66865158081055,54.46538543701172,-3.138519525527954,1.270919919013977,-1.3424454927444458,2.849623441696167,-221.4096221923828,72.64762115478516,-6.81281042098999,226.23089599609375,0.0,0.0,0.0,0.0,0.0007665574084967375,0.000739503710065037,0.000769014295656234,0.0007314197719097137,-0.0009659452480264008,-0.0009564784122630954,-0.0005912233609706163,-0.0005951776402071118,-150.2520751953125,357.54620361328125,-192.29315185546875,412.8287048339844,-335.212646484375,218.86077880859375,266.0850524902344,-331.0732421875,0.30780029296875,-0.004226127173751593,-2.570805372670293e-05,-0.0011914068600162864,-0.009238224476575851,-0.0019755475223064423,-0.005118625238537788,0.03799616917967796,-0.07918591052293777,-0.030825257301330566,-0.0,2735.361328125,2006.542236328125,1485.2679443359375,2516.489990234375
1761462660.1575797,14516211168466667019,1626,30.519479751586914,25.905141830444336,52.83795166015625,54.55439376831055,-3.999173641204834,5.274116516113281,-2.357438087463379,3.197192907333374,-202.69451904296875,219.91429138183594,-46.30833435058594,60.88612747192383,0.0,0.0,0.0,0.0,0.0007101779337972403,0.000561723078135401,0.0007152301259338856,0.000554904283490032,-0.00044777552830055356,-0.0004343640757724643,-0.00031069351825863123,-0.0003160344494972378,-180.4451446533203,327.2500305175781,-224.8112030029297,390.0056457519531,-338.42218017578125,208.62472534179688,282.9950256347656,-349.3042297363281,0.307708740234375,-0.0026082550175487995,0.001025408855639398,-0.001444838591851294,-0.014036099426448345,-0.0007580920355394483,-0.004288659431040287,-0.06421151757240295,-0.0420437790453434,-0.011524864472448826,-0.0,2733.236083984375,1981.582763671875,1601.6494140625,2584.84375
1761462661.2043045,14516211168466667019,1647,30.62194061279297,25.97965431213379,52.70562744140625,54.38218307495117,3.0519065856933594,-2.091564178466797,1.4823673963546753,-0.6292014718055725,32.032283782958984,-30.563770294189453,-34.21157455444336,112.45159912109375,0.0,0.0,0.0,0.0,0.0007000454352237284,0.0006191129214130342,0.0007053558365441859,0.0006129143293946981,-0.0009484667680226266,-0.0009484040783718228,-0.0002276800078107044,-0.0002280276094097644,-150.9026641845703,357.29437255859375,-217.2642059326172,385.8790283203125,-344.59796142578125,212.1329803466797,271.5726623535156,-340.1636047363281,0.3078422546386719,-0.005759855266660452,0.005045403726398945,-0.0007802717154845595,-0.0006942483596503735,-0.002446520607918501,-0.004974602721631527,-0.352601021528244,-0.15469878911972046,-0.2694021463394165,-0.0,2781.88916015625,1974.8070068359375,1513.1033935546875,2446.38427734375
1761462662.2051222,14516211168466667019,1667,30.826112747192383,26.14385414123535,52.82288360595703,54.463348388671875,6.8844475746154785,-7.144286632537842,6.769224643707275,-2.4224815368652344,273.4310302734375,-199.200927734375,262.8564758300781,-72.72808837890625,0.0,0.0,0.0,0.0,0.0007943365490064025,0.00044633069774135947,0.0007997291977517307,0.0004285528266336769,-0.0007210542680695653,-0.0007308982312679291,0.0004285038448870182,0.00043180183274671435,-182.16943359375,344.1097106933594,-260.38543701171875,358.30865478515625,-354.649169921875,207.2567596435547,292.4087829589844,-354.45867919921875,0.3075408935546875,-0.0017440919764339924,-0.002459306037053466,0.0021354160271584988,0.004126586019992828,-0.0003901589661836624,0.0006970459362491965,-0.7234915494918823,-0.16576775908470154,-0.41784632205963135,-0.0,2848.775146484375,1976.37451171875,1633.8021240234375,2499.87255859375
1761462663.2587204,14516211168466667019,1688,30.39056968688965,25.989307403564453,52.762901306152344,54.581974029541016,-2.118274688720703,1.4546512365341187,-0.9577720761299133,0.23692844808101654,116.98453521728516,-112.79358673095703,6.531182289123535,-157.66021728515625,0.0,0.0,0.0,0.0,0.0007282818551175296,0.0008610675577074289,0.000728025974240154,0.0008596292464062572,-0.0007383271586149931,-0.0007309286738745868,-0.0011213740799576044,-0.0011245913337916136,-157.11143493652344,343.54449462890625,-177.9484405517578,424.81884765625,-333.858642578125,222.81150817871094,273.8887023925781,-316.3946228027344,0.3077583312988281,-0.004668348003178835,0.004940359853208065,-0.001243721810169518,-0.003115260973572731,-0.0010670158080756664,-0.0019163860706612468,0.34357234835624695,0.07194681465625763,0.09006620198488235,-0.0,2719.943359375,1978.3284912109375,1548.7581787109375,2587.510986328125
1761462664.2594016,14516211168466667019,1708,30.556133270263672,25.913646697998047,52.63405227661133,54.300689697265625,0.9673833250999451,0.11611729115247726,0.2545863389968872,-0.15981493890285492,-29.732282638549805,8.01309871673584,-8.784232139587402,21.833179473876953,0.0,0.0,0.0,0.0,0.0006782678538002074,0.0008238014415837824,0.0006802111165598035,0.0008233943372033536,-0.0009249434806406498,-0.00092026632046327,-0.0011001700768247247,-0.001102238311432302,-144.76084899902344,352.32861328125,-166.44622802734375,412.3260803222656,-339.1370849609375,219.37619018554688,256.5513000488281,-305.5149841308594,0.3079948425292969,-0.005856632255017757,0.003377631539478898,-0.0015240830834954977,0.0007110997103154659,-0.0025251940824091434,-0.0030911779031157494,-0.07808741182088852,-0.019296718761324883,0.018069803714752197,-0.0,2763.34228515625,1969.2064208984375,1447.84912109375,2396.061279296875
1761462665.3089375,14516211168466667019,1729,30.377317428588867,25.992164611816406,52.75566864013672,54.58390426635742,-2.0638480186462402,1.33909273147583,-1.170560598373413,0.15892086923122406,107.06036376953125,-102.98340606689453,-2.1725893020629883,-132.11219787597656,0.0,0.0,0.0,0.0,0.0007371589308604598,0.0008402459789067507,0.0007382645853795111,0.0008388187270611525,-0.000776115630287677,-0.0007688220357522368,-0.0010346472263336182,-0.0010378374718129635,-154.2079315185547,344.522216796875,-182.9732666015625,424.4476318359375,-330.624267578125,222.52313232421875,273.713623046875,-321.0970153808594,0.30776214599609375,-0.004483592230826616,0.004789453465491533,-0.0011569495545700192,-0.003181882668286562,-0.0009052774403244257,-0.0017365289386361837,0.3481828570365906,0.06492621451616287,0.11546915024518967,-0.0,2716.0322265625,1979.0927734375,1542.8245849609375,2586.926513671875
1761462666.3560276,14516211168466667019,1750,30.429655075073242,25.94516372680664,52.615699768066406,54.380943298339844,0.7452070116996765,0.332035094499588,-0.5187839269638062,-0.41462478041648865,-7.704645156860352,42.955570220947266,-16.857683181762695,50.023189544677734,0.0,0.0,0.0,0.0,0.0006898656720295548,0.000767047400586307,0.0006953888805583119,0.000767775229178369,-0.000966670282650739,-0.0009621753124520183,-0.0009085555793717504,-0.0009105626959353685,-142.91433715820312,354.6042175292969,-175.4725799560547,406.53594970703125,-336.0772705078125,217.93055725097656,257.0335388183594,-315.28302001953125,0.3079986572265625,-0.005819822195917368,0.005001105833798647,-0.0011195201659575105,-0.00045098408008925617,-0.0022350517101585865,-0.004111217800527811,0.07702089846134186,-0.03812915459275246,0.04152830317616463,-0.0,2736.47998046875,1977.7972412109375,1437.37939453125,2440.64599609375
1761462667.3570435,14516211168466667019,1770,30.768531799316406,26.06830406188965,52.698604583740234,54.32878875732422,1.1612846851348877,-0.7763876914978027,0.21927057206630707,-1.7058848142623901,-96.76068115234375,-17.273422241210938,-74.27035522460938,-127.87429809570312,0.0,0.0,0.0,0.0,0.0007285687024705112,0.00073196244193241,0.0007341785239987075,0.0007295471150428057,-0.0009277568897232413,-0.0009247127454727888,-0.001000509480945766,-0.001001981901936233,-158.86822509765625,349.572998046875,-171.1304931640625,417.1517028808594,-347.0701599121094,220.8551788330078,262.5966491699219,-310.3916320800781,0.30777740478515625,-0.005012469831854105,0.0016553116729483008,-0.0012692412128672004,-0.006452398840337992,-0.001041241455823183,-0.004876652266830206,-0.6534672975540161,0.04502571001648903,-0.09746482223272324,-0.0,2807.205078125,1994.7811279296875,1487.1932373046875,2407.654052734375
1761462668.4075837,14516211168466667019,1791,30.455387115478516,26.1108455657959,52.7496337890625,54.61299133300781,-3.2790002822875977,1.78121018409729,-1.3529508113861084,1.070648431777954,53.84536361694336,-42.23137283325195,-2.8967854976654053,-94.88313293457031,0.0,0.0,0.0,0.0,0.0007653347565792501,0.0007427287637256086,0.0007673391955904663,0.0007364466437138617,-0.0007815721328370273,-0.0007732191006653011,-0.0007919854833744466,-0.0007956344052217901,-157.36598205566406,345.80029296875,-195.26962280273438,420.49005126953125,-333.23870849609375,221.87164306640625,276.8600769042969,-335.90386962890625,0.3076591491699219,-0.0045236749574542046,0.004147511441260576,-0.0012187138199806213,-0.007024116348475218,-0.0011006356216967106,-0.0038116425275802612,0.31396275758743286,-0.0018078995635733008,0.04798667132854462,-0.0,2721.910400390625,2005.6474609375,1544.7318115234375,2608.5859375
1761462669.408463,14516211168466667019,1811,30.58286476135254,25.991483688354492,52.6419677734375,54.34391784667969,-0.04392116889357567,0.943913996219635,-1.2023000717163086,0.15467403829097748,-168.19461059570312,119.566162109375,-134.12384033203125,123.7973403930664,0.0,0.0,0.0,0.0,0.0006722658290527761,0.000740828167181462,0.0006772426422685385,0.0007404734496958554,-0.0009794441284611821,-0.0009730011224746704,-0.0009228353155776858,-0.0009255275363102555,-142.8242950439453,353.60418701171875,-175.43618774414062,412.64349365234375,-341.58441162109375,219.3987579345703,257.2723693847656,-319.2743225097656,0.30791473388671875,-0.00455922307446599,0.0007513491436839104,-0.0014024225529283285,-0.010915577411651611,-0.0013880132464691997,-0.0037360794376581907,-0.5307983160018921,0.012465202249586582,0.11551649123430252,-0.0,2757.060546875,1993.55908203125,1445.02880859375,2422.40234375
1761462670.4571073,14516211168466667019,1832,30.580312728881836,25.870222091674805,52.89915084838867,54.515541076660156,6.3267717361450195,-4.287622928619385,4.213303565979004,-2.5483219623565674,101.59535217285156,160.4966583251953,-48.467472076416016,1.7836617231369019,0.0,0.0,0.0,0.0,0.0008068410097621381,0.0004809170786757022,0.0008153930539265275,0.0004702557052951306,-0.00047690756036899984,-0.00048295874148607254,9.307231812272221e-05,9.485234477324411e-05,-190.72486877441406,328.6187744140625,-259.5114440917969,370.4733581542969,-349.2076721191406,207.80029296875,305.2689514160156,-361.8764343261719,0.307647705078125,-0.005637669004499912,0.006491322536021471,-0.0013091332511976361,-0.0018360292306169868,-0.0027229671832174063,-0.00488923629745841,-0.7994123697280884,-0.27517837285995483,-0.6196463108062744,-0.0,2800.56298828125,1946.085693359375,1667.4208984375,2535.201171875
1761462671.494803,14516211168466667019,1853,30.497297286987305,25.8690185546875,52.776485443115234,54.45042419433594,0.5123019218444824,-1.4572217464447021,-0.6450712084770203,-0.7483362555503845,-35.3179817199707,-110.55393981933594,-79.59454345703125,99.87203979492188,0.0,0.0,0.0,0.0,0.0007287945481948555,0.0007850552210584283,0.0007331038359552622,0.000784378731623292,-0.0009990523103624582,-0.0009947246871888638,-0.0007150209858082235,-0.0007170214666984975,-135.31150817871094,355.0597229003906,-198.97225952148438,408.7494812011719,-331.7125244140625,217.723388671875,276.2535705566406,-324.88006591796875,0.3078346252441406,-0.004239067900925875,0.0029020789079368114,-0.001193142612464726,-0.009879487566649914,-0.000488324323669076,-0.004499922972172499,-0.6525259613990784,0.02116348408162594,-0.2444227933883667,-0.0,2738.98779296875,1948.1610107421875,1547.52197265625,2493.958984375
1761462672.4991457,14516211168466667019,1873,30.602331161499023,26.037799835205078,52.66982650756836,54.374515533447266,1.6365944147109985,-1.5081837177276611,-0.38623806834220886,-2.200305461883545,99.11431121826172,-250.08242797851562,-25.896724700927734,-143.0690155029297,0.0,0.0,0.0,0.0,0.0007180990069173276,0.0007991988095454872,0.000723311270121485,0.0008006750140339136,-0.0010362507309764624,-0.00103415094781667,-0.0008556036045774817,-0.0008567278273403645,-141.2204132080078,354.1042785644531,-178.0624542236328,417.048095703125,-339.63946533203125,220.7960205078125,261.24853515625,-314.27777099609375,0.3078460693359375,-0.0037720531690865755,0.0008233602857217193,-0.0012009901693090796,0.005633849650621414,0.0005873480113223195,0.0017221187008544803,0.14863188564777374,0.15099145472049713,0.31220850348472595,-0.0,2776.3232421875,1977.7537841796875,1467.834228515625,2427.500244140625
1761462673.5595613,14516211168466667019,1894,30.34773826599121,25.944887161254883,52.65507888793945,54.4622802734375,-0.040121372789144516,0.3683566749095917,-0.9325146079063416,-0.7570534348487854,59.417633056640625,6.148962020874023,0.06705522537231445,-28.72645378112793,0.0,0.0,0.0,0.0,0.0007157913642004132,0.0007913936860859394,0.0007213829085230827,0.0007925796089693904,-0.0009352031047455966,-0.0009305308922193944,-0.0009035798138938844,-0.0009056809940375388,-144.5226287841797,348.5829772949219,-179.18385314941406,423.5075988769531,-332.9300842285156,220.29100036621094,262.26678466796875,-317.519775390625,0.3079376220703125,-0.0056274873204529285,0.005723382346332073,-0.0009715461055748165,-0.003568096784874797,-0.002056022407487035,-0.0044836923480033875,0.024878814816474915,-0.013631320558488369,0.0030978114809840918,-0.0,2718.54150390625,1972.97607421875,1466.382080078125,2494.02587890625
1761462674.5991333,14516211168466667019,1915,30.735422134399414,26.123838424682617,52.66450119018555,54.35523223876953,1.3447924852371216,2.0247325897216797,-0.6475299000740051,0.7583945393562317,127.2305679321289,169.0395050048828,-104.64636993408203,41.4803581237793,0.0,0.0,0.0,0.0,0.0008044425048865378,0.0007803750340826809,0.000810510478913784,0.0007772973622195423,-0.0010023352224379778,-0.0009958571754395962,-0.00047630752669647336,-0.00047909707063809037,-152.28253173828125,356.2313232421875,-195.60108947753906,408.5626525878906,-339.33233642578125,227.3125457763672,266.8269958496094,-319.9869384765625,0.3077430725097656,-0.005445866379886866,0.00520225428044796,-0.0013677641982212663,0.002798113040626049,-0.002852775389328599,-0.0020440779626369476,0.17586392164230347,-0.09562274068593979,0.2339077740907669,-0.0,2811.30419921875,2029.2816162109375,1470.924560546875,2434.18896484375
1761462675.6066988,14516211168466667019,1935,30.75242805480957,26.15862464904785,52.83171463012695,54.5487060546875,-4.035383224487305,2.123080253601074,-2.278312921524048,3.2372026443481445,-91.77848052978516,41.74858856201172,-51.33747863769531,206.46302795410156,0.0,0.0,0.0,0.0,0.0008809641585685313,0.000705546815879643,0.0008853043545968831,0.0006957101868465543,-0.0006992536364123225,-0.0006877837586216629,0.0001274331589229405,0.00012274451728444546,-171.99832153320312,340.13641357421875,-240.36509704589844,389.8551025390625,-334.3633117675781,224.716552734375,288.05438232421875,-340.2021789550781,0.30748748779296875,-0.0016305908793583512,0.0014870102750137448,-0.0006841088179498911,-0.013279196806252003,6.162426871014759e-07,-0.005217401776462793,-0.24974851310253143,-0.011943272314965725,-0.1446826010942459,-0.0,2773.78271484375,2016.18505859375,1597.8148193359375,2579.25634765625
1761462676.6473603,14516211168466667019,1957,30.430011749267578,25.974390029907227,52.77960205078125,54.55888366699219,-2.8887388706207275,2.5354695320129395,-0.2742558717727661,1.721754550933838,128.40403747558594,-131.2806854248047,68.5572509765625,-137.98623657226562,0.0,0.0,0.0,0.0,0.0007477978942915797,0.0008629455114714801,0.0007452104473486543,0.0008581927395425737,-0.0007133930339477956,-0.0007045370293781161,-0.001086454838514328,-0.0010901927016675472,-157.39352416992188,340.1388854980469,-188.04344177246094,434.2578125,-332.1039733886719,223.13148498535156,280.0318603515625,-323.18133544921875,0.3077125549316406,-0.0055264756083488464,0.004496652167290449,-0.0015980463940650225,-0.0046539404429495335,-0.00238947500474751,-0.0031994995661079884,0.324588418006897,-0.005159298423677683,-0.03361109271645546,-0.0,2727.23095703125,1976.9925537109375,1569.4569091796875,2585.86474609375
1761462677.6562772,14516211168466667019,1977,30.435789108276367,25.94167137145996,52.67319869995117,54.424407958984375,-1.1806188821792603,1.4614685773849487,0.2139061540365219,1.9079445600509644,26.80197525024414,15.838443756103516,38.100772857666016,54.04650115966797,0.0,0.0,0.0,0.0,0.0007253634976223111,0.0009219119674526155,0.0007226322195492685,0.0009186835377477109,-0.0008456969517283142,-0.0008379815262742341,-0.0011529766488820314,-0.0011562425643205643,-149.05691528320312,344.50714111328125,-174.41732788085938,429.9874267578125,-329.7933654785156,224.2134552001953,266.2431335449219,-311.2633056640625,0.3078880310058594,-0.005454699974507093,0.005133732222020626,-0.0012154442956671119,0.004674097523093224,-0.0021302644163370132,-0.002604690846055746,0.5970970988273621,0.02987818606197834,0.01761680282652378,-0.0,2732.137451171875,1974.0966796875,1491.994384765625,2494.226318359375
1761462678.6992486,14516211168466667019,1998,30.509639739990234,26.047277450561523,52.72738265991211,54.5059814453125,-0.8061155080795288,-0.042356546968221664,-1.2684612274169922,0.18127261102199554,38.76462173461914,-22.584196090698242,-52.70539855957031,30.91245460510254,0.0,0.0,0.0,0.0,0.0007822253392077982,0.0008032172336243093,0.0007863375940360129,0.0008003539405763149,-0.0009886517655104399,-0.0009824201697483659,-0.0006381580606102943,-0.0006409073830582201,-143.41473388671875,354.45819091796875,-198.8605194091797,422.7779541015625,-332.4203186035156,222.67742919921875,271.6793212890625,-329.18695068359375,0.3077354431152344,-0.004786130506545305,0.0037830318324267864,-0.001155088422819972,-0.009355791844427586,-0.0013931873254477978,-0.004976158030331135,-0.2779494524002075,-0.023815220221877098,-0.08899469673633575,-0.0,2741.114990234375,1992.474609375,1519.215576171875,2532.18359375
1761462679.707702,14516211168466667019,2018,30.834632873535156,26.136503219604492,52.76095962524414,54.377685546875,3.071017265319824,-2.8946621417999268,3.8626043796539307,-0.054091211408376694,230.83087158203125,-144.50399780273438,311.56536865234375,11.935829162597656,0.0,0.0,0.0,0.0,0.0008044064743444324,0.0008136295946314931,0.0008033236372284591,0.0008051501354202628,-0.0007085528341121972,-0.0007087707053869963,-0.0003666799748316407,-0.00036713617737405,-177.1984100341797,335.6358337402344,-215.15187072753906,405.228759765625,-344.1410217285156,225.66326904296875,279.2686462402344,-321.3966979980469,0.3076019287109375,-0.004340142011642456,0.00344089325517416,6.096912784414599e-06,0.0014554456574842334,-0.0015272373566403985,-0.006907997652888298,-0.46805158257484436,-0.025091441348195076,-0.6292904615402222,-0.0,2839.42138671875,1990.7010498046875,1574.519287109375,2462.530029296875
1761462680.7447722,14516211168466667019,2039,30.592985153198242,25.837125778198242,52.85821533203125,54.43273162841797,0.04135071858763695,1.673027753829956,-2.7979907989501953,-1.7707048654556274,-467.03289794921875,419.6181335449219,-438.7154541015625,75.5444107055664,0.0,0.0,0.0,0.0,0.0007409681566059589,0.0008415827760472894,0.0007482640794478357,0.000848390453029424,-0.0007550772279500961,-0.0007441380294039845,-0.0014604663010686636,-0.0014647403731942177,-152.02447509765625,340.0028991699219,-159.9084014892578,440.7008056640625,-333.94940185546875,220.8912353515625,269.4292297363281,-305.1849365234375,0.3077430725097656,-0.0013264274457469583,0.0014885921264067292,-0.00201597367413342,-0.01055889017879963,0.001229609944857657,-0.0027606303337961435,-0.47979551553726196,0.23478055000305176,0.11131338775157928,-0.0,2754.55419921875,1969.141845703125,1565.1640625,2489.737548828125
1761462681.7484357,14516211168466667019,2059,30.560270309448242,25.81798553466797,52.871177673339844,54.46269989013672,8.158273696899414,-7.3134894371032715,5.1265950202941895,-4.0872392654418945,368.0392761230469,-182.88638305664062,175.2018585205078,-131.40139770507812,0.0,0.0,0.0,0.0,0.000811354024335742,0.000529951008502394,0.0008204461773857474,0.0005197803257033229,-0.0008552595390938222,-0.0008650445379316807,0.00033847149461507797,0.0003414250386413187,-144.88917541503906,349.0474853515625,-269.4026794433594,350.7438049316406,-335.63836669921875,204.25079345703125,297.2927551269531,-355.0774230957031,0.3077278137207031,-0.0007952426094561815,-0.0025928891263902187,0.0014351514400914311,0.010915727354586124,0.002779590431600809,0.006148429587483406,-0.48343130946159363,-0.018978778272867203,-0.1296953558921814,-0.0,2797.206787109375,1912.3001708984375,1650.039794921875,2483.3701171875
1761462682.7576466,14516211168466667019,2079,30.472156524658203,25.933008193969727,52.76978302001953,54.509498596191406,-4.350654602050781,4.771202564239502,-0.9772181510925293,3.9549171924591064,-5.853909969329834,141.734619140625,54.69023132324219,-30.872196197509766,0.0,0.0,0.0,0.0,0.0007310344371944666,0.000823135778773576,0.0007278465200215578,0.0008174278191290796,-0.00040790881030261517,-0.00039601867320016026,-0.0007801757892593741,-0.0007849400280974805,-179.9151153564453,321.5163269042969,-200.8221435546875,416.4075927734375,-340.9884033203125,223.56581115722656,277.02508544921875,-331.5782470703125,0.3077392578125,-0.0054094064980745316,0.003908875863999128,-0.0016823395853862166,0.001743140397593379,-0.003397036576643586,-0.0015437687980011106,0.8482687473297119,-0.09052975475788116,0.13322260975837708,-0.0,2731.257568359375,1983.583984375,1564.8392333984375,2559.93701171875
1761462683.7988045,14516211168466667019,2100,30.641910552978516,26.156156539916992,52.66050720214844,54.41876983642578,2.03255558013916,-1.6316770315170288,1.0516494512557983,-0.43138858675956726,87.61434936523438,-81.01611328125,62.991676330566406,61.52986526489258,0.0,0.0,0.0,0.0,0.0008111041970551014,0.0006864604074507952,0.0008181758457794785,0.00067945069167763,-0.001042818184942007,-0.0010411483235657215,-0.0002185017947340384,-0.0002194346598116681,-142.32350158691406,358.3328857421875,-212.82110595703125,393.0144958496094,-333.9552001953125,219.41604614257812,266.7923889160156,-336.3615417480469,0.3077201843261719,-0.005415834952145815,0.00426383875310421,-0.0006607213290408254,-0.0016083352966234088,-0.0030813682824373245,-0.007733082864433527,-0.20151540637016296,-0.19039882719516754,-0.32894277572631836,-0.0,2783.471435546875,2008.025390625,1486.870361328125,2467.78271484375
1761462684.806667,14516211168466667019,2120,30.449743270874023,26.012392044067383,52.70989227294922,54.49516296386719,-0.3793090283870697,0.4851445257663727,-0.9515135884284973,-0.48235055804252625,51.53863525390625,48.2462272644043,-3.7148592472076416,-10.541080474853516,0.0,0.0,0.0,0.0,0.0007452490972355008,0.0007868895772844553,0.0007504278910346329,0.000786582357250154,-0.0008440654492005706,-0.0008387259440496564,-0.0008141815196722746,-0.0008165645413100719,-143.0505828857422,352.10992431640625,-194.13475036621094,404.8468933105469,-329.2963562011719,218.67428588867188,268.42596435546875,-327.8731994628906,0.30777740478515625,-0.0052456664852797985,0.005395001731812954,-0.0010555575136095285,-0.003664580639451742,-0.0017647526692599058,-0.0040245032869279385,0.039515670388936996,-0.05048128589987755,-0.006675375159829855,-0.0,2735.9912109375,1988.3905029296875,1507.8909912109375,2518.80810546875
1761462685.8591611,14516211168466667019,2142,30.72234344482422,26.247243881225586,52.7598991394043,54.539791107177734,-4.3221564292907715,2.0425021648406982,-1.5760211944580078,3.897473096847534,-85.79047393798828,-51.45817184448242,-57.43949890136719,124.77635955810547,0.0,0.0,0.0,0.0,0.0007979940273799002,0.0008387249545194209,0.0007950779981911182,0.0008287603850476444,-0.0009101735195145011,-0.0008987769251689315,-0.0006217394256964326,-0.0006264263647608459,-151.89175415039062,355.4672546386719,-198.6659393310547,421.2754821777344,-332.6494445800781,229.6516876220703,273.76568603515625,-337.761962890625,0.3074913024902344,-0.0026095511857420206,0.00033847003942355514,-0.000954808434471488,-0.012045998126268387,-0.0011809344869107008,-0.005381538067013025,0.02160988561809063,-0.0016889673424884677,-0.06009983271360397,-0.0,2763.612060546875,2034.7542724609375,1552.6522216796875,2576.392822265625
1761462686.8992226,14516211168466667019,2163,30.670629501342773,26.074865341186523,52.72871398925781,54.42215347290039,1.3074650764465332,-2.238638401031494,1.8301604986190796,0.7789581418037415,12.646607398986816,-73.77413177490234,160.47654724121094,148.62118530273438,0.0,0.0,0.0,0.0,0.0008382946252822876,0.0007440052577294409,0.0008414779440499842,0.000733961642254144,-0.0010083125671371818,-0.0010054669110104442,-0.0002979026467073709,-0.00029936167993582785,-143.83657836914062,359.91241455078125,-213.7818603515625,391.2843017578125,-332.7473449707031,219.21714782714844,274.7750244140625,-336.7737731933594,0.30768585205078125,-0.005275306291878223,0.00322323152795434,-0.0008104880689643323,0.0003736455109901726,-0.002400027122348547,-0.006310048513114452,-0.12164409458637238,-0.17431996762752533,-0.4421718418598175,-0.0,2780.712646484375,1988.1966552734375,1542.811767578125,2485.3408203125
1761462687.9083016,14516211168466667019,2183,30.60280990600586,25.87734603881836,52.83238220214844,54.43912124633789,-0.11086463183164597,2.4993715286254883,-3.5825369358062744,-0.8630006909370422,-498.6695861816406,505.2409362792969,-494.4517517089844,146.35472106933594,0.0,0.0,0.0,0.0,0.00079855986405164,0.000718640920240432,0.0008101407438516617,0.0007222582353278995,-0.0007089441642165184,-0.0006977245211601257,-0.0006774645880796015,-0.0006818781257607043,-164.19105529785156,346.38238525390625,-197.12940979003906,397.91278076171875,-333.1974792480469,216.21543884277344,272.9696350097656,-328.9866638183594,0.30771636962890625,-0.0009875126415863633,0.0020335603039711714,-0.001805754960514605,-0.011119697242975235,0.0007965559489093721,-0.003661982249468565,-0.4108879268169403,0.07893159985542297,0.158006489276886,-0.0,2755.473388671875,1987.41552734375,1551.47607421875,2486.7373046875
1761462688.9482367,14516211168466667019,2204,30.607181549072266,25.763729095458984,52.88508224487305,54.402889251708984,7.619261264801025,-5.226842403411865,4.564448833465576,-2.587661027908325,58.713539123535156,178.6753692626953,-53.02725601196289,111.33849334716797,0.0,0.0,0.0,0.0,0.0008194103138521314,0.0006566860829479992,0.0008256060536950827,0.0006496237474493682,-0.0006141645717434585,-0.0006200348143465817,8.271569822682068e-05,8.405790140386671e-05,-176.2982177734375,340.0785827636719,-252.37486267089844,353.2373352050781,-342.3416748046875,211.40887451171875,294.6592102050781,-342.4763488769531,0.3077354431152344,-0.005474073812365532,0.007038208656013012,-0.0005212365067563951,0.0025424626655876637,-0.0020480849780142307,-0.004285506438463926,-0.8603299856185913,-0.22268112003803253,-0.6693436503410339,-0.0,2805.14111328125,1925.343505859375,1648.6820068359375,2462.09228515625
1761462689.9538662,14516211168466667019,2224,30.67937660217285,26.10904312133789,52.697662353515625,54.387962341308594,0.4000961482524872,-0.49117952585220337,-1.292824625968933,-1.0373443365097046,-29.95356559753418,-134.5127716064453,-142.33140563964844,29.34335708618164,0.0,0.0,0.0,0.0,0.0007010381086729467,0.0008141705766320229,0.0007049845880828798,0.0008158718119375408,-0.0010684413136914372,-0.001063142903149128,-0.0009534468408674002,-0.0009557595476508141,-144.5771026611328,363.52423095703125,-170.16949462890625,413.8839111328125,-341.95947265625,222.5133056640625,255.13209533691406,-314.7405090332031,0.3077201843261719,-0.004053220618516207,0.0014921566471457481,-0.0012207586551085114,-0.007077360060065985,-0.00010772003588499501,-0.004514141008257866,-0.39754268527030945,0.12292663753032684,0.018972575664520264,-0.0,2780.25,2002.7034912109375,1478.989013671875,2446.14697265625
1761462691.0095825,14516211168466667019,2245,30.778400421142578,25.943317413330078,52.93574905395508,54.467586517333984,7.009840965270996,-3.8714332580566406,4.056617736816406,-2.2009758949279785,-118.19148254394531,214.71749877929688,-111.63350677490234,158.31735229492188,0.0,0.0,0.0,0.0,0.0008189632790163159,0.0004301244916860014,0.000830449047498405,0.00041946687269955873,-0.0006096208235248923,-0.0006138525204733014,0.00020430343283805996,0.00020517151278909296,-190.98512268066406,338.5730895996094,-257.546142578125,356.7318420410156,-350.18218994140625,207.5597381591797,298.19976806640625,-359.009765625,0.3074913024902344,-0.005734722130000591,0.007408230099827051,-0.0007763640605844557,0.0005578186828643084,-0.0026675001718103886,-0.004325394053012133,-0.7416694164276123,-0.2968931496143341,-0.5799300074577332,-0.0,2834.142578125,1969.491943359375,1683.4267578125,2510.427001953125
1761462692.0465765,14516211168466667019,2266,30.54018211364746,26.075490951538086,52.661312103271484,54.41073989868164,0.7640942335128784,-1.255273699760437,-0.2633035182952881,-1.9796937704086304,27.633455276489258,-174.1289825439453,4.586575508117676,-118.51339721679688,0.0,0.0,0.0,0.0,0.0007174729835242033,0.0008234882261604071,0.0007219811086542904,0.0008243413176387548,-0.0009953199187293649,-0.000992627115920186,-0.001021818956360221,-0.001023123855702579,-153.23117065429688,353.9715576171875,-164.9967041015625,414.7900695800781,-337.83599853515625,222.67459106445312,253.63148498535156,-310.3624267578125,0.3077964782714844,-0.003928840160369873,0.00019310315838083625,-0.0012603269424289465,0.011394434608519077,0.0002857523213606328,0.0047448622062802315,0.6408378481864929,0.15334579348564148,0.5087858438491821,-0.0,2759.91552734375,1987.52294921875,1465.145263671875,2453.934814453125
1761462693.1081119,14516211168466667019,2287,30.662269592285156,26.059803009033203,52.90228271484375,54.55467987060547,6.827450752258301,-4.088356971740723,3.176405906677246,-3.879815101623535,288.2972106933594,97.12277221679688,-176.3149871826172,-200.49510192871094,0.0,0.0,0.0,0.0,0.0007294515962712467,0.0005845376872457564,0.0007360185845755041,0.0005796495242975652,-0.0005567800835706294,-0.000562968838494271,-7.722782902419567e-05,-7.528388960054144e-05,-197.04335021972656,337.17425537109375,-238.9908905029297,382.1011962890625,-356.73095703125,217.2924041748047,288.0360107421875,-349.6189270019531,0.3074531555175781,-0.0007616996299475431,-0.0015484404284507036,0.001668725279159844,0.0019954675808548927,0.004331974312663078,0.006554238498210907,-0.6214121580123901,0.2738606035709381,0.21652133762836456,-0.0,2829.025146484375,1984.904296875,1651.719970703125,2550.34228515625
1761462694.1529264,14516211168466667019,2308,30.491037368774414,25.949251174926758,52.640235900878906,54.34675216674805,0.9011104106903076,-0.06604939699172974,0.09208916872739792,-0.5874037146568298,25.279817581176758,-19.150970458984375,14.56439208984375,-22.825593948364258,0.0,0.0,0.0,0.0,0.0006968911038711667,0.0008593228994868696,0.0006991580012254417,0.0008600991568528116,-0.0009292168542742729,-0.0009248663554899395,-0.0011212759418413043,-0.001123235677368939,-149.66464233398438,357.2454528808594,-164.3611297607422,406.0477600097656,-338.0977783203125,220.39059448242188,251.98272705078125,-306.2735900878906,0.30791473388671875,-0.005816599819809198,0.00442421855404973,-0.001224997453391552,0.0002755489549599588,-0.0021484356839209795,-0.0039831241592764854,-0.027598803862929344,0.005569732282310724,-0.020016653463244438,-0.0,2752.97802734375,1974.416015625,1453.777587890625,2421.44677734375
1761462695.2092364,14516211168466667019,2329,30.55390167236328,26.176700592041016,52.70706558227539,54.535804748535156,-3.3126397132873535,2.226792335510254,-0.6220489144325256,2.7119367122650146,12.512496948242188,37.39670944213867,29.852981567382812,-38.46287536621094,0.0,0.0,0.0,0.0,0.0007701592403464019,0.000810402212664485,0.0007685797172598541,0.0008014505147002637,-0.0007650277693755925,-0.0007564937695860863,-0.0007039664196781814,-0.000707608531229198,-173.90150451660156,348.0808410644531,-187.35365295410156,416.5234069824219,-341.7419128417969,226.65301513671875,265.8279724121094,-327.2828063964844,0.3076057434082031,-0.0056004305370152,0.0029927336145192385,-0.0015432899817824364,-0.0052601853385567665,-0.002598068444058299,-0.003956956788897514,0.3391748070716858,-0.05876713991165161,0.03574465215206146,-0.0,2747.234130859375,2024.59619140625,1522.4339599609375,2565.4404296875
1761462696.252239,14516211168466667019,2350,30.65852165222168,25.769487380981445,52.92489242553711,54.42061233520508,6.95172643661499,-4.078298568725586,4.0058794021606445,-2.0355730056762695,-82.6322021484375,233.48629760742188,-97.23002624511719,181.9744415283203,0.0,0.0,0.0,0.0,0.0007768711075186729,0.0004604993446264416,0.0007866960950195789,0.00045082831638865173,-0.0006286047864705324,-0.0006324105197563767,0.00010542380186961964,0.00010604919225443155,-176.85235595703125,344.111083984375,-253.76687622070312,356.0771179199219,-345.4276123046875,204.03895568847656,294.86041259765625,-354.8545227050781,0.3076515197753906,-0.005369001068174839,0.0078108846209943295,-0.000504001509398222,0.0026192760560661554,-0.0020070755854249,-0.0036420293617993593,-0.6918761134147644,-0.2628137767314911,-0.5899825096130371,-0.0,2806.847412109375,1935.103759765625,1673.33203125,2481.010986328125
1761462697.297459,14516211168466667019,2371,30.67499542236328,25.9052677154541,52.78447723388672,54.33713912963867,7.484927177429199,-7.900782108306885,6.409584999084473,-3.624558210372925,291.5627746582031,-374.6978759765625,352.6299743652344,-48.40045166015625,0.0,0.0,0.0,0.0,0.000776343047618866,0.0006329299649223685,0.0007805651985108852,0.0006220497307367623,-0.000987185980193317,-0.0009968221420422196,-0.00014766053936909884,-0.00014485765132121742,-151.32412719726562,354.9147644042969,-226.77658081054688,370.7820129394531,-341.9216613769531,209.45016479492188,279.51513671875,-333.0768737792969,0.3077545166015625,-0.0011058927047997713,-0.0007974944310262799,0.003151497570797801,0.007689950056374073,-0.0007900589844211936,-0.0002423514233669266,-0.7990626096725464,-0.10076276957988739,-0.556950569152832,-0.0,2815.511474609375,1918.08447265625,1591.8255615234375,2412.265380859375
1761462698.3438723,14516211168466667019,2392,30.373367309570312,26.019811630249023,52.759483337402344,54.5958366394043,-3.224573850631714,2.4361162185668945,-1.212134838104248,1.8283723592758179,60.99344253540039,-82.16946411132812,22.597610473632812,-59.732784271240234,0.0,0.0,0.0,0.0,0.0007863053469918668,0.0008113755029626191,0.0007872077985666692,0.0008063676650635898,-0.000749272177927196,-0.0007400545291602612,-0.0008013827609829605,-0.0008053682977333665,-158.4558563232422,350.8877258300781,-190.5642852783203,413.5048522949219,-329.75457763671875,222.28631591796875,271.9284362792969,-331.6230163574219,0.3076667785644531,-0.005061063449829817,0.004374169744551182,-0.0014133414952084422,-0.007434730883687735,-0.0019917169120162725,-0.003982343710958958,0.29385149478912354,-0.040173571556806564,-0.004827277269214392,-0.0,2709.01513671875,1990.0625,1553.01806640625,2602.160888671875
1761462699.3596606,14516211168466667019,2412,30.53663444519043,26.10175895690918,52.61492156982422,54.38591766357422,0.5575641989707947,-0.07342546433210373,-0.01363456156104803,-0.3189593255519867,9.360910415649414,-46.11387252807617,22.65125274658203,31.82440757751465,0.0,0.0,0.0,0.0,0.0007303418824449182,0.0007906712708063424,0.0007348327781073749,0.0007892675930634141,-0.0009955489076673985,-0.0009910512017086148,-0.0008888143347576261,-0.0008908206364139915,-147.17579650878906,359.9102783203125,-167.95265197753906,412.6935729980469,-339.5387268066406,222.52365112304688,249.7722625732422,-316.2436828613281,0.3078117370605469,-0.005485139321535826,0.0035611912608146667,-0.000990632688626647,-0.001878951326943934,-0.00205800449475646,-0.005922572687268257,-0.0076089585199952126,-0.004824664909392595,-0.07034478336572647,-0.0,2757.781005859375,2004.214599609375,1440.32861328125,2447.552734375
1761462700.403588,14516211168466667019,2433,30.625019073486328,25.985837936401367,52.83268356323242,54.51729965209961,-2.1580605506896973,2.6316938400268555,-3.521740198135376,2.737194061279297,-605.2001342773438,481.81854248046875,-473.57080078125,346.97052001953125,0.0,0.0,0.0,0.0,0.0007435466977767646,0.00046335955266840756,0.000754128210246563,0.00045604060869663954,-0.0008271748665720224,-0.0008152515511028469,4.624434586730786e-05,4.162948971497826e-05,-158.47006225585938,365.3798828125,-234.48463439941406,379.2721252441406,-340.9683837890625,209.4115753173828,276.41363525390625,-364.10028076171875,0.3075828552246094,0.00034291172050870955,0.0011222964385524392,-0.0015437713591381907,-0.012295986525714397,-7.246435416163877e-05,-0.004586117807775736,-0.06328392028808594,-0.1299964338541031,0.09267347306013107,-0.0,2739.156005859375,2013.202392578125,1574.0234375,2545.50341796875
1761462701.445025,14516211168466667019,2454,30.592870712280273,26.00762176513672,52.784873962402344,54.46875,3.3155453205108643,-0.9434669613838196,0.9490548968315125,-1.556351661682129,174.99400329589844,157.2914276123047,-57.51996612548828,-96.94843292236328,0.0,0.0,0.0,0.0,0.0008199292351491749,0.000631543982308358,0.0008288421668112278,0.0006253811297938228,-0.0008238150621764362,-0.000822889560367912,-7.503633241867647e-05,-7.580611418234184e-05,-165.04966735839844,359.4054260253906,-222.80157470703125,381.25799560546875,-340.2875671386719,216.35731506347656,276.59033203125,-340.0008544921875,0.3076362609863281,-0.005923253949731588,0.006238496396690607,-0.0014265330974012613,-0.00485020549967885,-0.0033705984242260456,-0.004286043345928192,-0.5520631670951843,-0.24355174601078033,-0.19515115022659302,-0.0,2789.484130859375,1991.472412109375,1567.5848388671875,2500.9677734375
1761462702.4509838,14516211168466667019,2474,30.720321655273438,26.152101516723633,52.6955451965332,54.38059997558594,-0.14293937385082245,-0.11276452988386154,-1.460686206817627,-0.514984130859375,-29.82615852355957,-97.35746765136719,-151.7057342529297,78.45460510253906,0.0,0.0,0.0,0.0,0.0006833738298155367,0.0007808341761119664,0.0006867336924187839,0.0007814190466888249,-0.0010395055869594216,-0.0010333303362131119,-0.0008917091181501746,-0.0008943273569457233,-147.1708221435547,369.04833984375,-169.9824981689453,421.4700622558594,-346.7020263671875,222.95689392089844,253.85281372070312,-318.19171142578125,0.3076667785644531,-0.003748568007722497,0.0012221945216879249,-0.0010509334970265627,-0.00931581761687994,-0.0005156297702342272,-0.005441343877464533,-0.45904073119163513,0.10683373361825943,-0.0027359926607459784,-0.0,2786.005859375,2014.194580078125,1476.345703125,2446.18603515625
1761462703.4975188,14516211168466667019,2495,30.585533142089844,26.105731964111328,52.78394317626953,54.5562858581543,-5.3392720222473145,3.7792322635650635,-1.4454870223999023,3.8196890354156494,21.35707664489746,-36.47135925292969,115.29473876953125,-95.86212921142578,0.0,0.0,0.0,0.0,0.0008247361402027309,0.0008140993304550648,0.0008227572543546557,0.0008055416401475668,-0.0004018186009489,-0.00039080411079339683,-0.00037863728357478976,-0.0003831398789770901,-193.7506866455078,334.62664794921875,-215.27896118164062,400.7166748046875,-338.9700622558594,226.2409210205078,280.6352233886719,-335.4022216796875,0.3075408935546875,-0.0033880560658872128,0.0004704945895355195,-0.0010738152777776122,-0.012767498381435871,-0.0007408265955746174,-0.003857295960187912,0.04700123891234398,0.005588745232671499,0.008369497023522854,-0.0,2748.2470703125,2010.06201171875,1577.688720703125,2582.2880859375
1761462704.5051107,14516211168466667019,2515,30.448226928710938,25.95227813720703,52.62290954589844,54.351890563964844,1.0955705642700195,0.04850327596068382,-0.27626752853393555,-0.6207078099250793,17.380714416503906,7.228551864624023,-13.94748592376709,32.9643440246582,0.0,0.0,0.0,0.0,0.0006931595271453261,0.0008067752351053059,0.0006975121214054525,0.0008080948027782142,-0.000938418204896152,-0.0009341409895569086,-0.0009799515828490257,-0.0009818794205784798,-141.13377380371094,359.3572082519531,-170.6645965576172,403.6424255371094,-336.62353515625,219.28602600097656,251.1382293701172,-313.0286865234375,0.30792236328125,-0.005780934821814299,0.004816834814846516,-0.0011338017648085952,0.00015433112275786698,-0.0021889652125537395,-0.004072538577020168,0.011029869318008423,-0.020922843366861343,0.01976899616420269,-0.0,2742.305419921875,1977.6064453125,1440.036376953125,2421.51123046875
1761462705.5451875,14516211168466667019,2536,30.366247177124023,26.053539276123047,52.765438079833984,54.62046432495117,-3.136843204498291,1.9447132349014282,-1.858100175857544,0.716596782207489,48.13224411010742,-90.90005493164062,15.771402359008789,-88.7542953491211,0.0,0.0,0.0,0.0,0.0007995054475031793,0.0007576344069093466,0.0008039597305469215,0.0007538625504821539,-0.0007520435028709471,-0.0007436495507135987,-0.0006903192843310535,-0.0006940158782526851,-158.3494110107422,349.2982482910156,-194.89768981933594,411.4073791503906,-329.0970458984375,221.10182189941406,273.0099182128906,-337.3243103027344,0.3076286315917969,-0.003934948705136776,0.004292014986276627,-0.0010091650765389204,-0.00564885139465332,-0.0006447597406804562,-0.002516035921871662,0.3963613510131836,0.015319190919399261,0.12394070625305176,-0.0,2706.24658203125,1993.6796875,1550.9373779296875,2609.210693359375
1761462706.5517945,14516211168466667019,2556,30.54527473449707,25.856975555419922,52.79349136352539,54.445655822753906,-4.656649589538574,3.5645437240600586,-2.92763090133667,5.0662455558776855,-371.7406921386719,158.2436065673828,-30.416248321533203,457.4372863769531,0.0,0.0,0.0,0.0,0.0008532872889190912,0.0006937594735063612,0.0008592345402576029,0.0006856388645246625,-0.0007696831598877907,-0.000754537817556411,4.6645534894196317e-05,4.089379217475653e-05,-151.57594299316406,350.9472961425781,-229.9973602294922,364.7091979980469,-323.9847106933594,216.54908752441406,278.5503234863281,-342.5635986328125,0.3077430725097656,-0.001246976898983121,-0.0014395895414054394,-0.0013499496271833777,-0.013307121582329273,-0.0011745148804038763,-0.0036422701086848974,-0.1334744244813919,-0.13464847207069397,-0.04494372010231018,-0.0,2717.94384765625,1968.9852294921875,1564.1746826171875,2516.15087890625
1761462707.5585592,14516211168466667019,2576,30.693946838378906,26.191146850585938,52.69635772705078,54.41403579711914,-0.7192789912223816,-1.1574848890304565,-0.87887042760849,-0.8862465023994446,-12.519206047058105,-314.375,10.4472074508667,14.470513343811035,0.0,0.0,0.0,0.0,0.0007301212754100561,0.0008708430104888976,0.0007322857854887843,0.0008723083883523941,-0.0009947370272129774,-0.0009896450210362673,-0.0010814089328050613,-0.0010836371220648289,-147.5660858154297,360.236572265625,-164.3819580078125,424.74407958984375,-343.13665771484375,226.90554809570312,258.5732116699219,-311.509521484375,0.3076286315917969,-0.002455593552440405,-0.002126048319041729,-0.0027115338016301394,0.021292774006724358,-0.0004080032813362777,0.006875480525195599,1.3891441822052002,0.14087243378162384,0.6429965496063232,-0.0,2778.81689453125,2004.520263671875,1485.6976318359375,2466.05078125
1761462708.6009614,14516211168466667019,2597,30.503131866455078,26.09166717529297,52.73073196411133,54.51693344116211,0.7060914635658264,-1.7407535314559937,0.3097951114177704,-1.598596453666687,82.92047882080078,-100.69011688232422,70.24703979492188,-64.69486999511719,0.0,0.0,0.0,0.0,0.0007157083018682897,0.0006792406784370542,0.0007214650395326316,0.0006761825061403215,-0.0008194425608962774,-0.0008183150202967227,-0.0005812520394101739,-0.0005818952922709286,-157.89511108398438,354.8428955078125,-201.65086364746094,398.55718994140625,-346.74114990234375,216.74069213867188,271.3773498535156,-339.5350646972656,0.307647705078125,-0.002657537115737796,0.0013162458781152964,-0.0004618031671270728,0.021577419713139534,0.0010368583025410771,0.009405218996107578,1.3298468589782715,0.09595923870801926,0.6633408665657043,-0.0,2751.969482421875,1989.109619140625,1530.6776123046875,2526.419921875
1761462709.6087947,14516211168466667019,2617,30.391586303710938,25.984451293945312,52.781864166259766,54.57709503173828,-3.5424156188964844,2.65371036529541,-1.126751184463501,1.7454473972320557,94.5478515625,-111.21107482910156,50.98879623413086,-97.36418151855469,0.0,0.0,0.0,0.0,0.0007644476136192679,0.0008285135845653713,0.0007639817777089775,0.0008240534807555377,-0.0007156599895097315,-0.0007061284268274903,-0.0009691450395621359,-0.0009731950121931732,-156.19459533691406,347.87548828125,-189.60389709472656,418.56768798828125,-335.7363586425781,221.8672637939453,275.8992004394531,-330.7060241699219,0.3076515197753906,-0.004937450401484966,0.0036864846479147673,-0.0015725018456578255,-0.008025635965168476,-0.001781820086762309,-0.0035324885975569487,0.23684830963611603,-0.004898579325526953,-1.0672955795598682e-05,-0.0,2712.807861328125,1979.75732421875,1566.421875,2592.523193359375
