timestamp,session_uid,frame,suspension_pos_rl,suspension_pos_rr,suspension_pos_fl,suspension_pos_fr,suspension_vel_rl,suspension_vel_rr,suspension_vel_fl,suspension_vel_fr,suspension_acc_rl,suspension_acc_rr,suspension_acc_fl,suspension_acc_fr,wheel_speed_rl,wheel_speed_rr,wheel_speed_fl,wheel_speed_fr,wheel_slip_ratio_rl,wheel_slip_ratio_rr,wheel_slip_ratio_fl,wheel_slip_ratio_fr,wheel_slip_angle_rl,wheel_slip_angle_rr,wheel_slip_angle_fl,wheel_slip_angle_fr,wheel_lat_force_rl,wheel_lat_force_rr,wheel_lat_force_fl,wheel_lat_force_fr,wheel_long_force_rl,wheel_long_force_rr,wheel_long_force_fl,wheel_long_force_fr,height_of_cog,local_velocity_x,local_velocity_y,local_velocity_z,angular_velocity_x,angular_velocity_y,angular_velocity_z,angular_acceleration_x,angular_acceleration_y,angular_acceleration_z,front_wheels_angle,wheel_vert_force_rl,wheel_vert_force_rr,wheel_vert_force_fl,wheel_vert_force_fr
1762838036.5744104,9500912255140419907,0,31.8964786529541,31.660873413085938,53.797210693359375,53.812583923339844,-0.2264198660850525,-0.5576429963111877,0.3349594473838806,-0.10760547965765,-11.354455947875977,-27.964563369750977,16.797475814819336,-5.396177291870117,0.0,0.0,0.0,0.0,-0.0004904408706352115,-0.00045646788203157485,-0.0004931373987346888,-0.0004546634154394269,0.0005968441255390644,0.0005944868316873908,0.00032037976779974997,0.00032082846155390143,-81.39158630371094,95.70149230957031,-112.17285919189453,119.38106536865234,-148.5122833251953,-159.52366638183594,93.78652954101562,82.44818115234375,0.3013801574707031,0.0029179842676967382,-0.002179084112867713,0.0005686694057658315,0.0009828574256971478,0.0011358719784766436,-0.002775269327685237,0.049288127571344376,0.05696146935224533,-0.13917362689971924,-0.0,2416.739013671875,2371.448486328125,2147.521240234375,2152.399169921875
1762838037.6107929,9500912255140419907,21,28.697040557861328,28.655248641967773,53.77336120605469,53.91678237915039,0.0,0.0,0.0,0.0,-0.8448957204818726,1.347809910774231,0.04023313149809837,-0.1341104507446289,0.0,0.0,0.0,0.0,-0.0004788544320035726,-0.0004972878377884626,-0.0004807115765288472,-0.0004948662826791406,0.0005687826196663082,0.0005652843392454088,0.000516644911840558,0.0005182184395380318,-47.52694320678711,85.032470703125,-98.45123291015625,101.35941314697266,-137.259033203125,-151.77374267578125,103.23115539550781,94.47246551513672,0.3041210174560547,0.002073570853099227,-0.0015165008371695876,0.0006545219803228974,0.0034249036107212305,0.0006883106543682516,-0.00011944553989451379,-0.0021013848017901182,0.0007800722378306091,-0.0014323012437671423,-0.0,2401.8427734375,2401.700927734375,2135.568115234375,2214.53857421875
1762838038.6161454,9500912255140419907,41,28.664962768554688,28.53430938720703,53.78192138671875,53.86997604370117,-0.047497447580099106,-0.08013098686933517,-0.04224478825926781,-0.04738568887114525,1.6227360963821411,-0.3419816195964813,-0.22798775136470795,-0.6973742842674255,0.0,0.0,0.0,0.0,-0.00048178216093219817,-0.00047230703057721257,-0.0004842038033530116,-0.00046917772851884365,0.0005861430545337498,0.0005827355198562145,0.0004766586353071034,0.00047817948507145047,-44.15446090698242,87.92182922363281,-92.79692077636719,106.31344604492188,-140.105224609375,-152.1475372314453,102.70153045654297,92.92282104492188,0.3042125701904297,0.0018303609685972333,-0.0009531477116979659,0.0006481048185378313,0.0021038237027823925,0.0005507693276740611,-0.00156359130050987,-0.0010801198659464717,-0.0004872993740718812,-0.0005894712521694601,-0.0,2394.626220703125,2378.15576171875,2136.646240234375,2185.573486328125
1762838039.6234229,9500912255140419907,61,28.66362190246582,28.534393310546875,53.771636962890625,53.8600959777832,0.010505317710340023,0.014640389941632748,0.010505317710340023,-0.0024586913641542196,0.670552134513855,2.695619583129883,-0.4962085783481598,-0.7241963148117065,0.0,0.0,0.0,0.0,-0.0004815160937141627,-0.0004711959045380354,-0.0004839861940126866,-0.0004680675338022411,0.0005891559412702918,0.0005857640062458813,0.0004783074837177992,0.00047982006799429655,-44.01248550415039,87.65492248535156,-91.89542388916016,105.21562194824219,-140.58045959472656,-152.11611938476562,101.46014404296875,90.90552520751953,0.3042259216308594,0.0018047516932711005,-0.0009025200270116329,0.0006855029496364295,0.001989842625334859,0.0005274791037663817,-0.001362105249427259,0.0012129450915381312,-0.0022090887650847435,0.0014371470315381885,-0.0,2394.79638671875,2379.09521484375,2129.516357421875,2178.72998046875
1762838040.6598341,9500912255140419907,82,28.66162872314453,28.532920837402344,53.77107238769531,53.86033630371094,0.005587934982031584,-0.003576278453692794,0.0,0.0024586913641542196,0.6034969687461853,-0.5900859236717224,-0.026822086423635483,0.09387729316949844,0.0,0.0,0.0,0.0,-0.0004817628941964358,-0.00047099633957259357,-0.00048422717372886837,-0.0004678608966059983,0.0005865151761099696,0.0005831184680573642,0.0004760826996061951,0.00047759737935848534,-43.77898025512695,87.68045043945312,-91.47203826904297,105.5003662109375,-140.46180725097656,-151.77462768554688,101.14503479003906,90.72915649414062,0.3042259216308594,0.0018230393761768937,-0.000917663041036576,0.0006862525478936732,0.001992027508094907,0.0005409647128544748,-0.0013721166178584099,0.0001964578259503469,-0.00039850707980804145,0.000524574366863817,-0.0,2394.377685546875,2378.5576171875,2129.075927734375,2178.869873046875
1762838041.672007,9500912255140419907,102,28.661670684814453,28.533445358276367,53.770164489746094,53.85969161987305,0.00022351740335579962,0.0008940696134231985,0.00044703480671159923,0.0006705521955154836,0.27492642402648926,0.06705521792173386,0.3084540069103241,0.36209815740585327,0.0,0.0,0.0,0.0,-0.0004822050977963954,-0.0004714180249720812,-0.000484663323732093,-0.00046827757614664733,0.0005861445679329336,0.0005827445420436561,0.0004753110115416348,0.0004768269427586347,-43.717708587646484,87.61233520507812,-91.2854995727539,105.48155975341797,-140.447021484375,-151.66311645507812,100.94905853271484,90.61734771728516,0.3042259216308594,0.0018241096986457705,-0.0009154975996352732,0.000689424283336848,0.00198697904124856,0.0005423019174486399,-0.0013595359632745385,0.00033950895885936916,-1.7455311535741203e-05,-9.709735604701564e-05,-0.0,2394.330078125,2378.73876953125,2128.39501953125,2178.3544921875
1762838042.7260442,9500912255140419907,123,28.663087844848633,28.53463363647461,53.771095275878906,53.859947204589844,0.01598149538040161,-0.005029141437262297,0.00827014446258545,0.0008940696134231985,2.3268160820007324,0.4224478602409363,0.37550923228263855,-0.10728833824396133,0.0,0.0,0.0,0.0,-0.0004793931730091572,-0.0004705903702415526,-0.00048184467596001923,-0.0004675336822401732,0.0005838926881551743,0.0005805169930681586,0.0004818601591978222,0.0004833656130358577,-43.43501663208008,86.53975677490234,-91.7824935913086,104.92945098876953,-140.174560546875,-152.9204864501953,101.2350082397461,90.66207885742188,0.30422401428222656,0.0018418313702568412,-0.0009249118156731129,0.0006900813314132392,0.001970389625057578,0.0005592291709035635,-0.0013485450763255358,-0.00014078801905270666,-0.00014082643610890955,0.002980618504807353,-0.0,2394.738037109375,2378.92236328125,2129.1064453125,2178.6064453125
1762838043.7643719,9500912255140419907,144,32.48569107055664,33.06093978881836,53.465538024902344,53.20056915283203,-2.6857850551605225,4.063993453979492,3.790408134460449,-4.2671709060668945,-156.93601989746094,184.60299682617188,271.84185791015625,-250.63902282714844,25.481637954711914,25.306068420410156,5.031739234924316,5.060197353363037,3.4269347190856934,3.403801918029785,-0.0017235692357644439,-0.0027631556149572134,0.0006575037841685116,-0.005383484996855259,-0.004767871927469969,-0.003546643303707242,-127.06403350830078,156.19679260253906,380.14520263671875,470.6888122558594,3895.417724609375,4145.5966796875,-213.28184509277344,-340.93060302734375,0.3022785186767578,0.012244696728885174,0.023411288857460022,5.05454158782959,0.015664389356970787,0.01837657392024994,0.01663726009428501,0.8903375864028931,1.003431797027588,1.0071067810058594,-5.362445881473832e-05,2668.750732421875,2820.79931640625,1819.296875,1714.9056396484375
1762838044.7731984,9500912255140419907,164,34.03544998168945,33.88920974731445,53.549163818359375,53.18104934692383,-0.5473941564559937,-2.8813629150390625,-1.8136202096939087,-0.6745755076408386,-27.532873153686523,48.21269607543945,22.758543014526367,55.06574630737305,29.180334091186523,29.311269760131836,14.036100387573242,13.888749122619629,1.0690113306045532,1.1073181629180908,-0.001566401682794094,-0.0024868864566087723,0.04014826938509941,0.032868996262550354,0.0012814501533284783,0.004126123618334532,-344.533447265625,7.575242042541504,-265.970458984375,-304.8748779296875,4575.57470703125,4463.11572265625,207.217529296875,-294.6502380371094,0.30106163024902344,0.29546669125556946,0.0678626298904419,13.99407958984375,0.0011529391631484032,-0.1332867294549942,0.0015442606527358294,0.028101321309804916,-0.354383260011673,-0.02931014448404312,-0.0,2944.7412109375,2866.7744140625,1904.446044921875,1647.1873779296875
1762838045.774643,9500912255140419907,184,36.56474304199219,36.39674377441406,53.35803985595703,53.38592529296875,-8.753612518310547,-8.520931243896484,-5.421191215515137,-4.302486896514893,-818.9453735351562,-784.6131591796875,144.9331817626953,96.3046875,27.006378173828125,27.068462371826172,19.960269927978516,19.95946502685547,0.34340301156044006,0.346634179353714,-0.0013183937408030033,-0.0012993855634704232,0.004299717023968697,-0.004058114718645811,-0.0014370570424944162,0.0013901269994676113,-264.75091552734375,258.6731872558594,36.544490814208984,-30.001760482788086,5445.318359375,5403.85595703125,-164.38038635253906,-164.1760711669922,0.299285888671875,0.0011482953559607267,0.07936650514602661,19.985034942626953,0.008666283451020718,-0.0008161808946169913,-0.0048920405097305775,0.4467277526855469,-0.0053254105150699615,-0.3229767978191376,-0.0,3244.422607421875,3217.754638671875,1716.945068359375,1738.83984375
1762838046.8216507,9500912255140419907,205,36.175533294677734,37.551612854003906,53.9304084777832,53.54306411743164,7.440223693847656,-3.419816255569458,1.3310461044311523,0.925138533115387,-409.412353515625,-260.1474304199219,-266.19580078125,-356.2643737792969,28.76956558227539,28.387197494506836,25.477109909057617,25.483821868896484,0.14183145761489868,0.12680701911449432,-0.0012090804520994425,-0.0012975914869457483,0.003458187682554126,-0.004938038066029549,-0.0013732659863308072,0.0015442757867276669,-380.4580383300781,509.6063537597656,2.1670398712158203,-33.368534088134766,5718.1318359375,6145.6337890625,-177.710205078125,-177.0243377685547,0.2978858947753906,-0.006978713907301426,0.10608172416687012,25.51278305053711,0.007712289225310087,0.005048660095781088,0.015379354357719421,-0.06996617466211319,-0.00931329932063818,0.37122055888175964,-0.0,3265.14697265625,3503.1201171875,2160.064208984375,1943.1834716796875
1762838047.824406,9500912255140419907,225,31.703960418701172,30.649690628051758,54.118553161621094,54.5476188659668,-7.519125461578369,-1.4348700046539307,-8.268356323242188,2.089217185974121,-383.38153076171875,36.799903869628906,-189.16281127929688,143.3372344970703,29.331588745117188,29.336782455444336,29.270360946655273,29.27482795715332,0.001487176981754601,0.0015099872834980488,-5.9169182350160554e-05,-5.084958684165031e-05,0.002971468959003687,-0.004230402410030365,-0.0018845940940082073,0.001259567216038704,-678.8276977539062,891.7315063476562,44.77223587036133,56.7259635925293,227.4204559326172,225.169189453125,-9.2489595413208,-8.610451698303223,0.30179405212402344,-0.014515483751893044,0.17934560775756836,29.275634765625,-0.0059876576997339725,0.0024763906840234995,0.009774238802492619,-0.022063514217734337,-0.13060061633586884,-0.11235873401165009,-0.0,3049.7265625,2921.063232421875,2324.978759765625,2615.477294921875
1762838048.866587,9500912255140419907,246,30.388870239257812,30.876745223999023,54.570411682128906,54.30738830566406,8.519031524658203,19.533632278442383,-5.2493062019348145,-6.221830368041992,280.5657958984375,567.8369750976562,-431.9696960449219,-53.05409240722656,29.864805221557617,29.843570709228516,28.994962692260742,28.993818283081055,0.019711414352059364,0.019390545785427094,-0.000398260512156412,-0.00040033546974882483,0.003564482554793358,-0.0034444397315382957,-0.001592933782376349,0.0016023810021579266,-724.103759765625,718.3020629882812,-7.295684337615967,-3.399841070175171,2610.586669921875,2656.9189453125,-65.78343963623047,-63.97359085083008,0.30194854736328125,0.002259167842566967,0.18560492992401123,29.016246795654297,-0.009692630730569363,-0.0006220233626663685,0.023356391116976738,-0.47225019335746765,0.006820815149694681,0.5135679841041565,-0.0,2868.919677734375,3007.016357421875,2588.056884765625,2445.841552734375
1762838049.8744757,9500912255140419907,266,31.511709213256836,31.36734962463379,54.3275260925293,54.37534713745117,-7.128193378448486,2.8493998050689697,-1.6567109823226929,-0.007152556907385588,-67.05522155761719,126.22473907470703,61.70421600341797,178.0852508544922,29.49420166015625,29.493637084960938,29.290008544921875,29.290283203125,0.004214765038341284,0.0042020222172141075,-9.796673111850396e-05,-9.772562043508515e-05,0.0036116051487624645,-0.0036412845365703106,-0.0015802488196641207,0.0015573212876915932,-789.9890747070312,800.0515747070312,-8.055432319641113,13.333122253417969,638.9686889648438,640.4508666992188,-16.087594985961914,-16.18882942199707,0.2998542785644531,-0.0005146799376234412,0.16962355375289917,29.295690536499023,-0.0003515161224640906,0.00011288545647403225,0.002333746524527669,-0.04261612147092819,0.0005603402387350798,-0.19978241622447968,-0.0,3050.82958984375,3077.24267578125,2492.32470703125,2527.2314453125
1762838050.915632,9500912255140419907,287,31.59543800354004,30.68886947631836,54.48948669433594,54.065277099609375,13.920886993408203,-19.45059585571289,13.5219087600708,-6.314813613891602,678.0757446289062,-190.02764892578125,565.90576171875,-101.95074462890625,29.52491569519043,29.457157135009766,29.342618942260742,29.23471450805664,0.003842254402115941,0.0046483431942760944,-0.00023895138292573392,6.31590373814106e-05,0.005633778404444456,-0.0015483875758945942,0.007661287672817707,0.009143603034317493,-1152.6427001953125,408.5914306640625,-1176.4716796875,-871.9036254882812,603.8828125,661.3067626953125,-42.095909118652344,9.621516227722168,0.3000946044921875,-0.05237478017807007,0.17095637321472168,29.292987823486328,-0.024665329605340958,-0.06790853291749954,-0.04146779701113701,-0.4028981626033783,-1.7764506340026855,-0.38442468643188477,0.010416492819786072,3226.667724609375,2766.70703125,2750.185546875,2260.466552734375
1762838051.9204166,9500912255140419907,307,32.57658004760742,29.945362091064453,55.0361328125,53.612403869628906,6.32956600189209,-17.146020889282227,11.235773086547852,-10.99951457977295,-388.04852294921875,242.79348754882812,191.95225524902344,80.66744995117188,29.565292358398438,29.408193588256836,29.39569664001465,29.1761531829834,0.003729062620550394,0.004881562199443579,-7.432313577737659e-05,-0.00010123356332769617,0.00848069041967392,0.001290743239223957,0.0046717640943825245,0.005807534325867891,-1634.192626953125,-73.10220336914062,-824.3670043945312,-504.63092041015625,597.779541015625,666.7020874023438,-13.48241901397705,-14.640613555908203,0.2969493865966797,-0.08282662183046341,0.1897175908088684,29.28898811340332,0.01037675328552723,-0.13433797657489777,-0.00843404047191143,1.7933950424194336,-0.1843249648809433,2.024892807006836,0.021900251507759094,3443.6044921875,2541.90576171875,3010.521240234375,2001.3856201171875
1762838052.9231362,9500912255140419907,327,31.253381729125977,31.15670394897461,54.35844421386719,54.33881378173828,-6.459652900695801,-4.479959011077881,-5.707293510437012,2.4676320552825928,-392.7424011230469,88.4592514038086,-335.6784362792969,277.8768310546875,29.4876708984375,29.488189697265625,29.289758682250977,29.290197372436523,0.004096995573490858,0.00409149844199419,-8.967729809228331e-05,-9.198216866934672e-05,0.0037226402200758457,-0.0034896815195679665,-0.0014491936890408397,0.0016918887849897146,-801.6727294921875,761.194580078125,-21.459407806396484,-3.0519964694976807,610.7252197265625,609.5231323242188,-14.606351852416992,-15.146586418151855,0.2975177764892578,0.003989650867879391,0.1899891495704651,29.294384002685547,0.013032902963459492,-4.4501997763291e-05,-0.0020014711190015078,-0.08152115345001221,0.013039755634963512,-0.04744691401720047,-0.0,2980.583984375,2980.55419921875,2484.1982421875,2511.48779296875
1762838053.9601018,9500912255140419907,348,31.34986686706543,31.5191707611084,54.53652572631836,54.47704315185547,10.797566413879395,0.4819035232067108,7.304548740386963,3.194957733154297,-272.2040100097656,-323.7291564941406,105.79973602294922,-145.57687377929688,29.24770164489746,29.24761390686035,29.29854393005371,29.29852294921875,-0.0010038119507953525,-0.0010019743349403143,-1.613061067473609e-05,-1.2944517038704362e-05,0.0037449297960847616,-0.0034772951621562243,-0.0014215892879292369,0.001734372810460627,-820.9921264648438,773.845458984375,-49.60552978515625,5.93149995803833,-155.63348388671875,-154.85316467285156,-2.7874276638031006,-2.207263469696045,0.29697227478027344,0.004015510901808739,0.17733097076416016,29.298370361328125,-0.00791516900062561,0.0002592981909401715,-0.003974354825913906,0.04635041207075119,-0.007167784031480551,0.07753771543502808,-0.0,3154.2568359375,3138.436279296875,2703.85888671875,2653.323974609375
1762838054.9714184,9500912255140419907,368,31.436494827270508,31.06422996520996,54.319026947021484,54.455352783203125,-2.907737970352173,-2.9268486499786377,-0.9130685925483704,2.214834213256836,180.44558715820312,-17.843399047851562,18.547470092773438,-44.45759201049805,29.490192413330078,29.4937744140625,29.28902816772461,29.290035247802734,0.00417340500280261,0.004204072058200836,-9.240249346476048e-05,-9.464692993788049e-05,0.003695886814966798,-0.0035170374903827906,-0.0014177245320752263,0.0017236793646588922,-802.3264770507812,765.0785522460938,-30.909990310668945,-1.0770841836929321,631.2219848632812,624.8939819335938,-15.22335147857666,-15.859664916992188,0.29705047607421875,0.0029330747202038765,0.18176275491714478,29.294519424438477,0.0016243139980360866,0.0006538985180668533,-0.004451355431228876,-0.17687107622623444,0.008902100846171379,-0.0515841580927372,-0.0,3062.580810546875,2974.783935546875,2510.350830078125,2589.291015625
1762838056.0158162,9500912255140419907,389,30.74241828918457,31.98061180114746,54.42108917236328,54.40629196166992,-13.471840858459473,8.08708381652832,-5.88364839553833,6.57610559463501,400.9096984863281,-466.4629211425781,105.45106506347656,-319.42425537109375,29.531105041503906,29.502159118652344,29.2958984375,29.269826889038086,0.004980418365448713,0.004870709963142872,-2.64789614448091e-05,-0.00015944556798785925,0.0052428776398301125,-0.001993450103327632,-0.002049618400633335,0.0011019709054380655,-1058.97705078125,509.7832946777344,46.07516098022461,73.6804428100586,735.4857788085938,740.4175415039062,-4.384634494781494,-26.48773765563965,0.2996406555175781,0.021127035841345787,0.17374533414840698,29.289215087890625,0.0019607441499829292,-0.015008577145636082,0.00913023017346859,-1.2924004793167114,1.0169925689697266,-1.238211989402771,-0.0,2939.521484375,3123.87548828125,2540.9052734375,2586.242919921875
1762838057.0657015,9500912255140419907,410,31.409404754638672,31.856801986694336,54.68681716918945,54.34944534301758,-0.9206681847572327,-8.55579948425293,-4.386305809020996,-5.028023719787598,-921.0235595703125,150.4852752685547,-411.8665771484375,-61.24820327758789,29.248735427856445,29.24766731262207,29.29682731628418,29.294912338256836,-0.0008655691053718328,-0.0008718387689441442,-7.795542842359282e-06,-1.3457784916681703e-05,0.0041187833994627,-0.003187837079167366,-0.0013031808193773031,0.0019132397137582302,-880.6004028320312,718.2772827148438,-55.45538330078125,-32.44167709350586,-132.022705078125,-134.44573974609375,-1.3291751146316528,-2.1943418979644775,0.3014945983886719,0.012177451513707638,0.17592352628707886,29.29694366455078,-0.011843874119222164,-0.0010673056822270155,0.017399905249476433,0.2851901650428772,0.05217020586133003,0.18794986605644226,-0.0,3061.35107421875,3119.376953125,2682.661865234375,2489.693115234375
1762838058.0690796,9500912255140419907,430,31.38266944885254,31.61526870727539,54.51517105102539,54.33525085449219,-0.747218668460846,-0.6336718201637268,1.7476825714111328,1.4048068523406982,-199.74407958984375,19.51306915283203,-5.082785606384277,81.59278869628906,29.487607955932617,29.486045837402344,29.290260314941406,29.290159225463867,0.004070998169481754,0.004051059950143099,-9.366594167659059e-05,-9.304790000896901e-05,0.003780171275138855,-0.003480770858004689,-0.00143642898183316,0.001712741213850677,-815.3097534179688,765.9137573242188,-37.05987548828125,-3.4786365032196045,612.8880615234375,616.3543701171875,-15.866948127746582,-15.388333320617676,0.300323486328125,0.00502893328666687,0.17824864387512207,29.295209884643555,0.006829527672380209,-0.00032430345891043544,0.004389979410916567,0.07438703626394272,-0.005984919611364603,0.13119255006313324,-0.0,3064.47802734375,3111.4306640625,2638.34814453125,2536.140869140625
1762838059.1222734,9500912255140419907,451,32.11396408081055,30.115009307861328,55.40786361694336,54.06590270996094,27.25168800354004,-34.40055847167969,9.0871000289917,-17.74974250793457,-338.86376953125,180.94847106933594,-619.7779541015625,-671.3435668945312,29.200204849243164,29.035945892333984,29.303537368774414,29.09198570251465,-0.003327491693198681,-0.0019552905578166246,-0.0001024462835630402,0.00024191087868530303,0.0080652991309762,0.0009083065669983625,0.011466414667665958,0.012086915783584118,-1556.230712890625,-13.223151206970215,-1718.0369873046875,-1158.6744384765625,-539.0897216796875,-267.1943664550781,-19.476356506347656,34.634185791015625,0.302398681640625,-0.09054327756166458,0.2190120816230774,29.19602394104004,-0.03988027200102806,-0.13346341252326965,-0.02531282790005207,0.5941564440727234,-1.968536138534546,1.300143837928772,0.02233298309147358,3490.062255859375,2590.495849609375,3319.917724609375,2217.889404296875
1762838060.48131,9500912255140419907,461,30.054059982299805,30.939298629760742,54.61856460571289,54.27877426147461,-2.1801888942718506,2.5295464992523193,-1.6175954341888428,0.4664808213710785,34.47978973388672,145.95909118652344,-273.1293029785156,11.801716804504395,28.416353225708008,28.417415618896484,28.499238967895508,28.498313903808594,-0.002856617793440819,-0.0027785461861640215,5.027057704865001e-05,5.621775198960677e-05,0.003660771995782852,-0.003369714831933379,-0.0015215326566249132,0.0016478257020935416,-778.5453491210938,742.5875244140625,-29.41815948486328,3.5528197288513184,-417.63018798828125,-419.93798828125,8.562272071838379,9.175548553466797,0.3005504608154297,0.0047522191889584064,0.18321287631988525,28.497472763061523,0.00420788349583745,-0.0010079273488372564,0.009953000582754612,-0.07600393891334534,-0.0012873205123469234,0.07535665482282639,-0.0,2877.052490234375,3059.1318359375,2675.263671875,2496.73876953125
1762838061.4913204,9500912255140419907,482,32.17072296142578,28.508941650390625,55.1844482421875,53.6652717590332,44.86520767211914,-37.80738067626953,29.130802154541016,-30.00806999206543,72.37613677978516,-263.8903503417969,-55.65212631225586,-172.37222290039062,27.002817153930664,26.78171730041504,27.11089515686035,26.827604293823242,-0.003635683096945286,-0.0017552722711116076,-0.00015665043611079454,0.0003406666510272771,0.00904067512601614,0.0021034760866314173,0.017086688429117203,0.016294939443469048,-1732.8714599609375,-213.652099609375,-2412.343505859375,-1465.95361328125,-598.3939819335938,-216.8230438232422,-29.34601402282715,42.90414047241211,0.3016033172607422,-0.14851953089237213,0.17860448360443115,26.965023040771484,-0.05316437780857086,-0.17840759456157684,-0.055158182978630066,1.5254361629486084,-2.897705554962158,1.5900049209594727,0.03609747439622879,3631.53173828125,2251.42431640625,3272.8603515625,1887.13037109375
1762838062.49652,9500912255140419907,503,28.45323944091797,31.593095779418945,54.80003356933594,53.85831069946289,21.557024002075195,-10.778009414672852,-2.80827260017395,-0.5844979882240295,935.4403686523438,-890.1312255859375,235.001708984375,-20.599361419677734,25.471824645996094,25.473167419433594,25.55222511291504,25.547996520996094,-0.0031039901077747345,-0.002877335762605071,4.569164593704045e-05,6.662279338343069e-05,0.003442649729549885,-0.0034554244484752417,-0.0018987874500453472,0.0012368439929559827,-723.8610229492188,747.125732421875,13.463696479797363,28.00982093811035,-431.6248474121094,-437.1304931640625,7.8657684326171875,10.00046443939209,0.3021965026855469,0.0007707821205258369,0.16672104597091675,25.549169540405273,0.010280455462634563,-0.003992466256022453,0.023049205541610718,0.2547944188117981,0.023907030001282692,0.04103187099099159,-0.0,2687.39599609375,3128.85400390625,2745.50732421875,2232.7998046875
1762838063.538,9500912255140419907,525,28.60222053527832,32.19773483276367,55.00027847290039,54.001502990722656,0.1556798666715622,-6.142928600311279,5.391686916351318,6.620138645172119,-582.1197509765625,225.9224090576172,-177.9914093017578,-48.58820724487305,27.33504295349121,27.339170455932617,27.421659469604492,27.414440155029297,-0.0031037735752761364,-0.002674705348908901,3.999884211225435e-05,6.199430936248973e-05,0.00311929639428854,-0.003902024356648326,-0.002502304269000888,0.0006482401513494551,-652.0274047851562,829.9163818359375,64.1267318725586,115.80667114257812,-415.0693664550781,-419.76904296875,7.187406063079834,9.872441291809082,0.3015708923339844,-0.011673931032419205,0.18230211734771729,27.416715621948242,0.019636351615190506,-0.005923557095229626,0.025928130373358727,-0.31394314765930176,-0.033963970839977264,0.24358367919921875,-0.0,2530.7353515625,3289.289794921875,2951.2763671875,2423.34765625
1762838064.5412178,9500912255140419907,546,37.33616256713867,29.18943214416504,54.1802978515625,57.049320220947266,-16.187801361083984,-13.463459014892578,100.0924301147461,-37.459503173828125,-112.94786071777344,-2182.794677734375,21221.21875,-3361.705810546875,22.10173225402832,20.65350914001465,0.0,17.916975021362305,-0.036094024777412415,-0.09208940714597702,-0.9999992847442627,-0.2267179638147354,0.005792247597128153,-0.0018979422748088837,-0.006880742032080889,-0.0035067221615463495,-976.8213500976562,116.04151153564453,11.160079002380371,456.055908203125,-4157.109375,-2201.71826171875,-1685.297607421875,-6568.8271484375,0.29512786865234375,-0.045190684497356415,0.20070868730545044,22.881568908691406,-0.06042872369289398,-0.044609516859054565,-0.04430997371673584,-0.9588373303413391,0.540610134601593,-1.1492979526519775,-0.0,3216.07470703125,1080.48583984375,2546.702880859375,3872.3349609375
1762838065.543783,9500912255140419907,567,26.17759132385254,30.29305648803711,57.18375015258789,54.680389404296875,-114.15924072265625,-104.47256469726562,136.05368041992188,92.21282196044922,-9296.8759765625,-17600.833984375,7842.66943359375,9058.623046875,16.936792373657227,16.69258689880371,17.260026931762695,16.553943634033203,-0.011104817502200603,0.005561498925089836,-0.0007511160802096128,0.0006572801503352821,0.0273713618516922,0.021416299045085907,0.051851823925971985,0.03988851234316826,-0.0,-0.0,-4900.46533203125,-2300.198974609375,-0.0,0.0,-112.20099639892578,67.35118103027344,0.3070640563964844,-0.3321479856967926,0.17673733830451965,16.853425979614258,-0.05411043018102646,-0.4739026129245758,-0.11859065294265747,-8.02425765991211,-6.082391262054443,-2.48127818107605,0.12242186069488525,963.8189697265625,1318.5439453125,4921.7978515625,3516.88671875
1762838066.5835207,9500912255140419907,590,31.961952209472656,26.317977905273438,52.96699905395508,57.45734405517578,-144.8895263671875,-151.63882446289062,20.125293731689453,252.41261291503906,-22328.90234375,-1386.1123046875,7067.25439453125,17183.48828125,11.489717483520508,11.327377319335938,11.542572021484375,11.250051498413086,-0.0020577700342983007,0.003327368525788188,0.0010529744904488325,0.00010034483420895413,0.00808860082179308,0.0008913881611078978,-0.0006867980700917542,-0.004488993901759386,-0.0,-0.0,2.4096038341522217,693.9108276367188,-0.0,0.0,46.86292266845703,-16.924381256103516,0.30467987060546875,-0.23255090415477753,0.11763480305671692,11.36571216583252,-0.017176155000925064,-0.16599392890930176,-0.06951776146888733,-8.928881645202637,0.4737294614315033,-2.9725871086120605,0.050872836261987686,1443.961669921875,892.7003173828125,2629.83349609375,5976.25146484375
1762838067.6455736,9500912255140419907,612,25.805673599243164,32.6140022277832,53.21329116821289,52.89606857299805,-48.9462890625,72.79179382324219,4.014596462249756,-73.64317321777344,2855.566162109375,-8532.380859375,6081.77392578125,-10903.8095703125,9.30683708190918,9.156302452087402,9.32180404663086,9.155887603759766,0.00012287423305679113,0.0012780758552253246,0.0005793292657472193,6.28304696874693e-05,0.0007172015029937029,-0.006062859203666449,-0.027037525549530983,-0.026442140340805054,-81.03451538085938,682.7236938476562,1138.6773681640625,0.0,6.087268829345703,112.34169006347656,-33.52454376220703,-0.0,0.30220794677734375,-0.17303414642810822,0.018885135650634766,9.207338333129883,0.08831795305013657,-0.09307598322629929,0.10454016923904419,1.7195855379104614,2.0651252269744873,-4.107529163360596,0.02107432670891285,1984.851806640625,3206.162109375,1565.82177734375,1331.503662109375
1762838068.6856966,9500912255140419907,634,31.50649070739746,29.67874526977539,54.576725006103516,55.33665084838867,-21.581945419311523,33.11891174316406,-142.75721740722656,-5.595757961273193,-8052.26513671875,345.1534423828125,-20371.28125,-2252.4921875,7.460562229156494,7.446251392364502,7.459046363830566,7.447385787963867,0.0008416044292971492,0.0007125900010578334,0.0002933782816398889,0.0005628674407489598,0.0017999589908868074,-0.0049132090061903,-0.005212738178670406,-0.0016356892883777618,-0.0,681.1847534179688,239.75880432128906,117.32889556884766,0.0,83.28742218017578,-28.488731384277344,31.617685317993164,0.3031501770019531,-0.012341956607997417,0.10073380917310715,7.434056758880615,-0.052588675171136856,-0.015475474298000336,0.03814401477575302,0.2798290252685547,-0.7406152486801147,-1.90135657787323,-0.0,1940.9365234375,3339.692138671875,1893.7137451171875,2309.56005859375
1762838069.688784,9500912255140419907,655,27.758394241333008,28.028470993041992,53.71452713012695,54.10350799560547,-0.24396924674510956,0.8761882185935974,-0.8234381079673767,-0.058338042348623276,7.946043014526367,17.57517433166504,9.199979782104492,16.012784957885742,0.0,0.0,0.0,0.0,0.002340530976653099,0.0010383006883785129,0.0023768015671521425,0.00100813212338835,-0.00178020098246634,-0.0017683460609987378,0.0015732278116047382,0.001567642786540091,-102.69515991210938,307.01129150390625,176.52481079101562,170.01934814453125,-146.5336456298828,-80.85985565185547,-102.6746826171875,-255.79945373535156,0.3061981201171875,0.0006343451095744967,0.0005155684193596244,-0.001906350371427834,0.005015447735786438,0.0018749088048934937,0.006247268058359623,-0.003966986667364836,0.0022052505519241095,0.015898987650871277,-0.0,2232.20751953125,2329.912353515625,2067.265869140625,2322.73974609375
1762838070.6911535,9500912255140419907,676,28.097055435180664,32.42444610595703,53.18182373046875,53.76165771484375,-24.36360740661621,-13.654609680175781,-19.542423248291016,23.730785369873047,-5223.98095703125,-493.16729736328125,-3498.298828125,2452.5341796875,3.28861403465271,3.523681640625,3.111732006072998,3.841402053833008,0.5689693689346313,0.3503217399120331,-0.000562121975235641,-0.00035847577964887023,-0.13593532145023346,-0.13413859903812408,0.015471499413251877,-0.03471939638257027,348.25469970703125,792.4522705078125,-828.5487060546875,2478.85498046875,1619.49267578125,1894.6890869140625,-37.417816162109375,34.858802795410156,0.3030128479003906,0.041918955743312836,-0.013517170213162899,3.338900089263916,-0.040931712836027145,0.4709910452365875,-0.025072598829865456,0.15139606595039368,-0.6341537833213806,-2.0783398151397705,-0.27885058522224426,1536.54736328125,2915.37548828125,1592.315185546875,2079.8642578125
1762838071.7410603,9500912255140419907,698,30.54963493347168,32.87721633911133,53.181034088134766,53.75751876831055,59.8398551940918,41.089202880859375,7.689669132232666,-87.38077545166016,5994.548828125,1515.233154296875,3796.706787109375,-11193.1123046875,10.984013557434082,10.67941951751709,3.8262739181518555,3.965290069580078,1.1266287565231323,1.0480239391326904,-0.001555749448016286,-0.002036821795627475,-0.04101649299263954,-0.04545365646481514,-0.008195292204618454,-0.008150598034262657,20.181798934936523,297.7819519042969,391.5591735839844,431.7741394042969,3608.04833984375,3809.48974609375,-99.21589660644531,-110.84595489501953,0.3025093078613281,-0.11510345339775085,0.04287843406200409,3.910142421722412,-0.016168177127838135,0.08347983658313751,-0.020180905237793922,0.8320806622505188,0.8598508834838867,-1.7012810707092285,-0.019968688488006592,2997.46630859375,3313.35791015625,1555.7542724609375,1473.862548828125
1762838072.7465513,9500912255140419907,719,35.601524353027344,28.13632583618164,52.43449401855469,54.36162185668945,157.16329956054688,-59.56816864013672,-26.442794799804688,37.705081939697266,20625.765625,-8677.302734375,-2871.564697265625,8150.17529296875,13.325139045715332,14.923832893371582,6.27870512008667,6.52932596206665,1.1818808317184448,1.1962426900863647,-0.003085040021687746,-0.0005732737481594086,-0.25103849172592163,-0.2519141137599945,0.04592374712228775,0.030480554327368736,909.2196655273438,0.0,-1919.293212890625,-0.0,4151.77978515625,0.0,-153.58572387695312,-0.0,0.29805755615234375,-1.5386784076690674,0.038241907954216,6.286676406860352,-0.0298365019261837,0.1322895586490631,-0.0231662355363369,-1.0727124214172363,-4.650455474853516,-2.0987839698791504,0.24617899954319,4338.7275390625,1485.582763671875,1197.257568359375,2837.882568359375
1762838073.790037,9500912255140419907,741,31.62311363220215,24.945533752441406,53.829307556152344,54.870121002197266,98.97625732421875,-58.51772689819336,121.67406463623047,-74.12535095214844,11388.3408203125,-7399.24609375,10848.2548828125,-10778.048828125,5.207738399505615,5.210651397705078,5.210685729980469,5.207696437835693,0.0004826186632271856,0.00038791156839579344,0.0005244301864877343,-0.00015888149209786206,-0.0010695719392970204,-0.006347977556288242,-0.002077703597024083,0.00037869950756430626,-28.629749298095703,535.7853393554688,19.77765655517578,22.125234603881836,-59.07246398925781,-22.87784767150879,-50.30411911010742,-10.791142463684082,0.29831695556640625,-0.020686576142907143,0.039723195135593414,5.187511920928955,-0.006576843559741974,0.004828993231058121,0.04337024316191673,0.22946512699127197,0.20674771070480347,4.6267547607421875,-0.0,4064.12890625,1192.751708984375,2787.014404296875,2593.156005859375
1762838074.8409667,9500912255140419907,763,28.964099884033203,27.58631134033203,52.6962776184082,53.10887908935547,-39.15824890136719,119.07962799072266,-26.669574737548828,-51.1479377746582,-3267.24853515625,16196.9248046875,1196.81689453125,-4406.8623046875,3.712336301803589,3.262894868850708,3.859565496444702,3.4193100929260254,-0.005826333072036505,0.010477161034941673,-0.00020851819135714322,0.0005745083326473832,0.00067393813515082,-0.0032737799920141697,0.004568826407194138,-0.03022594563663006,-136.7928009033203,454.7432556152344,-261.9494323730469,1120.5784912109375,-479.739501953125,1060.5792236328125,-11.361984252929688,27.13646697998047,0.30963897705078125,-0.46414679288864136,-0.019322698935866356,3.4849069118499756,0.04537903890013695,-0.27720367908477783,0.11094443500041962,2.421628713607788,0.5393654704093933,0.6161811947822571,0.2822461724281311,2138.68896484375,3474.331787109375,1285.9530029296875,1199.2763671875
1762838075.8986747,9500912255140419907,785,22.340557098388672,36.2731819152832,55.8599853515625,51.31538391113281,14.97681713104248,35.1912841796875,13.735132217407227,6.109327793121338,-1139.72412109375,55.6220817565918,1374.8089599609375,3647.740234375,2.2919392585754395,2.1812942028045654,2.359506845474243,2.0719428062438965,-0.003348984057083726,0.011211954057216644,7.838066812837496e-05,0.0004133745969738811,0.0008390435832552612,-0.001663385657593608,0.0091998390853405,-0.016070371493697166,-129.67318725585938,210.16018676757812,-834.0849609375,683.82666015625,-230.11341857910156,-995.1201782226562,-8.778429985046387,-21.028196334838867,0.3188896179199219,-0.30394604802131653,0.014819219708442688,2.1022756099700928,0.02053666114807129,-0.17527058720588684,-0.06241052597761154,0.935024619102478,0.298495352268219,-0.3803844451904297,0.3046649098396301,1643.8779296875,3717.154296875,3412.85546875,841.7969970703125
1762838076.9408777,9500912255140419907,807,22.709749221801758,34.21168518066406,55.22866439819336,52.09025192260742,3.9461591243743896,-0.17801301181316376,1.016692876815796,-3.8082141876220703,278.7813415527344,17.997556686401367,776.5674438476562,-288.5690612792969,0.952478289604187,0.9479652047157288,0.9497076869010925,0.9433162808418274,0.00041762631735764444,0.0003006141632795334,0.0003099686873611063,0.0005181521992199123,-0.00031206183484755456,-0.0014411229640245438,-0.001215882133692503,-0.0010191017063334584,13.299504280090332,165.99981689453125,4.61962890625,77.98375701904297,19.767189025878906,-28.81572723388672,32.9531364440918,29.41590690612793,0.315032958984375,-0.01452675275504589,0.00034685403807088733,0.9354982972145081,0.010238063521683216,-0.004938346333801746,-0.049945950508117676,0.3801838755607605,-0.19564421474933624,-1.1031261682510376,0.016077009961009026,1239.3992919921875,3587.3681640625,2877.099609375,1099.129150390625
1762838077.9935472,9500912255140419907,829,26.08111000061035,30.8668270111084,54.56100082397461,52.28934097290039,-9.528422355651855,10.39123249053955,2.803173065185547,-2.4923832416534424,-7.6714067459106445,-45.33857345581055,7.704846382141113,16.251216888427734,-6.45195659051967e-12,-1.7061963820952375e-12,0.0,0.0,0.0005566186155192554,0.0009885701583698392,0.0003234329342376441,0.0007898603216744959,-0.0008193724206648767,-0.0008365820394828916,-0.0023686580825597048,-0.0023784074001014233,-140.47256469726562,513.586181640625,-20.855457305908203,263.1390075683594,-246.26976013183594,-1.386413812637329,156.78598022460938,-26.384796142578125,0.3145332336425781,-0.005746699869632721,0.004100841004401445,-0.0016855302965268493,-0.005992650054395199,0.00020274959388189018,-0.0018440098501741886,-0.01191740296781063,-0.003374989377334714,-0.07547862827777863,0.08764180541038513,1862.6185302734375,2988.990966796875,2530.45654296875,1225.02099609375
1762838079.0416248,9500912255140419907,851,26.70224380493164,29.221525192260742,54.15293502807617,52.86285400390625,-0.20145469903945923,12.730523109436035,3.3020691871643066,-8.662759780883789,442.1759033203125,78.16513061523438,88.03707122802734,-329.3415832519531,-1.0646904365085863e-12,-1.0516949724287405e-12,0.0,0.0,0.0009861374273896217,0.001065340475179255,0.0005297090392559767,0.0006532391998916864,-0.0015180081827566028,-0.001517292927019298,-0.002034207107499242,-0.0019980401266366243,-67.62077331542969,500.212646484375,-101.28933715820312,210.30625915527344,-223.6373291015625,-3.500082015991211,-138.41717529296875,170.09022521972656,0.3152198791503906,-0.005384249612689018,-0.0019843976479023695,-0.0022783896420150995,-0.008656970225274563,0.0002757732872851193,-0.0025882490444928408,-0.09430818259716034,-0.010541323572397232,-0.08755352348089218,0.24101141095161438,2055.858154296875,2687.39111328125,2292.535400390625,1503.21728515625
1762838080.092272,9500912255140419907,873,25.819486618041992,32.50446701049805,54.945518493652344,52.23958206176758,-0.798017680644989,-0.28446653485298157,-0.22401222586631775,0.005175883416086435,3.008915662765503,-7.789073944091797,4.203546047210693,-6.103187561035156,-1.058192921309098e-12,-1.058192487628229e-12,0.0,0.0,1.3388505976763554e-05,0.000729608815163374,-1.6998111505017732e-06,0.0007422028575092554,-0.00017916593060363084,-0.00018041695875581354,-0.001939587527886033,-0.0019393328111618757,-228.8911590576172,384.64227294921875,-27.74534797668457,260.2525329589844,-291.16436767578125,-3.973426342010498,368.6922912597656,-110.34395599365234,0.31375885009765625,-0.0014386388938874006,-0.0005401385715231299,-0.0008755871094763279,-0.0067253620363771915,-0.002136931288987398,-0.01342725194990635,-0.0025528750848025084,-0.003338845679536462,0.0051613906398415565,-0.0,1861.9891357421875,3248.279052734375,2751.81201171875,1242.5390625
1762838081.1417108,9500912255140419907,895,25.309906005859375,32.450660705566406,54.90585708618164,52.47108459472656,3.52242112159729,-1.170190691947937,2.2809321880340576,-3.1352858543395996,652.1943359375,-140.60520935058594,83.5455322265625,-503.2483215332031,-5.733469797021551e-13,-5.733467628617206e-13,0.0,0.0,0.00027723738458007574,0.00036383827682584524,0.0002758264308795333,0.0003609454433899373,-0.0006285914569161832,-0.0006148832617327571,-0.0008892473997548223,-0.0008941792184486985,-240.2342987060547,320.3943176269531,-13.041030883789062,245.9637908935547,-264.7116394042969,14.490544319152832,378.85211181640625,-127.18619537353516,0.3138275146484375,-0.005174099002033472,0.005626856815069914,-0.00048306072130799294,-0.0008690344984643161,0.0007992062019184232,-0.00572679378092289,0.2735025882720947,0.1170884519815445,0.37830111384391785,-0.0,1813.9046630859375,3219.309326171875,2751.53173828125,1373.4974365234375
1762838082.1878471,9500912255140419907,917,24.36509895324707,31.880800247192383,54.717376708984375,52.534183502197266,1.6081610918045044,-0.6116405129432678,-0.5211406350135803,-4.155642032623291,348.603271484375,-329.6639099121094,0.31069216132164,-525.7821655273438,-1.2304939781947882e-13,-1.230493436093702e-13,0.0,0.0,0.00012489809887483716,0.00019970134599134326,0.0001344377378700301,0.00019952804723288864,-0.0012757887598127127,-0.0012674303725361824,-0.0015275698387995362,-0.0015301451785489917,-173.56149291992188,340.2145080566406,31.432374954223633,263.7228088378906,-235.7089385986328,10.696226119995117,339.5014343261719,-126.83378601074219,0.3145637512207031,-0.006616885773837566,0.0036597573198378086,-0.002567654475569725,0.002424955368041992,0.0009057848947122693,-0.014404453337192535,0.33351412415504456,0.09294425696134567,-0.8444698452949524,-0.0,1590.3583984375,3106.7607421875,2600.096923828125,1386.41162109375
1762838083.1899343,9500912255140419907,938,24.332332611083984,31.857088088989258,54.70516586303711,52.53246307373047,2.363010883331299,-0.9238268136978149,-0.31151169538497925,-4.335853099822998,357.6837158203125,-337.8728332519531,16.90517234802246,-518.4195556640625,-1.2304939781947882e-13,-1.230493436093702e-13,0.0,0.0,0.00016736122779548168,0.0002572938392404467,0.00017797145119402558,0.0002577751292847097,-0.0013757410924881697,-0.0013662021374329925,-0.0015700057847425342,-0.0015728953294456005,-166.5162811279297,346.3326416015625,33.834434509277344,264.9617004394531,-232.4569091796875,14.430943489074707,341.0473327636719,-123.95338439941406,0.3145904541015625,-0.0066766878589987755,0.003855091519653797,-0.0025367625057697296,0.0019528208067640662,0.0013100188225507736,-0.016663065180182457,0.30521905422210693,0.10706187039613724,-0.9096941351890564,-0.0,1586.584716796875,3104.664794921875,2591.88818359375,1384.997802734375
1762838084.1915114,9500912255140419907,959,24.332992553710938,31.854082107543945,54.703792572021484,52.528663635253906,2.1563477516174316,-0.8961392641067505,-0.3099398612976074,-4.284428119659424,365.8106994628906,-337.8935241699219,24.216262817382812,-533.8538208007812,-1.2304939781947882e-13,-1.230493436093702e-13,0.0,0.0,0.00017433124594390392,0.0002604816108942032,0.00018448845366947353,0.00026072392938658595,-0.0013267595786601305,-0.001317269285209477,-0.0015175684820860624,-0.0015204428927972913,-169.83203125,343.0662536621094,33.340145111083984,264.40130615234375,-232.71646118164062,16.03535270690918,342.6571960449219,-123.43413543701172,0.3145942687988281,-0.006730326451361179,0.003743578214198351,-0.00229488592594862,0.0018803697312250733,0.001169424271211028,-0.01639665849506855,0.3123672604560852,0.10618691146373749,-0.9056599736213684,-0.0,1587.091796875,3102.99365234375,2591.060791015625,1381.623291015625
1762838085.2343686,9500912255140419907,981,24.396896362304688,31.75909423828125,54.73267364501953,52.503150939941406,-5.447299480438232,3.5459556579589844,-2.3410935401916504,5.407900333404541,-284.7393798828125,210.81536865234375,-28.57668685913086,424.8660583496094,-1.2304939781947882e-13,-1.230493436093702e-13,0.0,0.0,0.00024766853312030435,0.00019955422612838447,0.000249829376116395,0.00018865586025640368,-0.0012780198594555259,-0.0012902236776426435,-0.0010318593122065067,-0.0010282121365889907,-167.8675994873047,340.4753112792969,6.28150749206543,260.9772033691406,-226.93313598632812,11.900774002075195,360.57513427734375,-137.0679473876953,0.3146018981933594,-0.0011520545231178403,-0.0030834474600851536,-0.0008844515541568398,0.004413124173879623,0.0008496316149830818,0.016631199046969414,0.028272220864892006,-0.02336091734468937,0.1765691190958023,-0.0,1534.18115234375,3112.053466796875,2631.72216796875,1425.3582763671875
1762838086.2413578,9500912255140419907,1002,24.476886749267578,31.703580856323242,54.80311584472656,52.45527648925781,5.126930236816406,-2.1989643573760986,1.2094526290893555,-2.246126413345337,93.7364730834961,219.31077575683594,-163.05149841308594,11.92241096496582,-1.2304939781947882e-13,-1.230493436093702e-13,0.0,0.0,0.00024254161689896137,0.0001606171135790646,0.00025400123558938503,0.00015425929450429976,-0.0014827826526015997,-0.0014742320636287332,-0.0011261197505518794,-0.0011289671529084444,-161.8057861328125,351.16998291015625,11.413991928100586,252.7096405029297,-233.0581817626953,9.442390441894531,363.00543212890625,-130.6652069091797,0.3145637512207031,-0.0062728580087423325,0.008908405900001526,-0.0005256078438833356,-0.00225654523819685,-0.0010007161181420088,-0.001747792586684227,0.012366938404738903,-0.14243847131729126,0.4502246677875519,-0.0,1614.1357421875,3094.832763671875,2672.60205078125,1361.1021728515625
1762838087.2446644,9500912255140419907,1023,24.451801300048828,31.695409774780273,54.797119140625,52.46171188354492,4.962421417236328,-1.7753987312316895,0.9758769869804382,-2.139955759048462,93.4481430053711,245.0734100341797,-180.7808837890625,13.719491004943848,-1.2304939781947882e-13,-1.230493436093702e-13,0.0,0.0,0.0002473086933605373,0.00016663045971654356,0.0002591317461337894,0.00016053173749241978,-0.001485709217377007,-0.0014778609620407224,-0.0011247934307903051,-0.001127400784753263,-161.31101989746094,351.38232421875,11.503222465515137,253.3531036376953,-232.47293090820312,11.262396812438965,361.5615539550781,-130.8042755126953,0.3145751953125,-0.006209767423570156,0.008967348374426365,-0.0005474045756272972,-0.0022235382348299026,-0.0010249747429043055,-0.0017655615229159594,0.01758517511188984,-0.14393629133701324,0.3838157653808594,-0.0,1609.12158203125,3096.66845703125,2667.32080078125,1364.7572021484375
1762838088.2855422,9500912255140419907,1045,24.29002571105957,31.818815231323242,54.72165298461914,52.59761428833008,-4.721357822418213,5.503668785095215,-1.0892003774642944,5.711987018585205,14.812516212463379,171.66134643554688,51.270416259765625,50.760780334472656,-1.2304939781947882e-13,-1.230493436093702e-13,0.0,0.0,0.0002953532384708524,0.0002502241695765406,0.00029300260939635336,0.00023854567552916706,-0.0008459624950774014,-0.0008552208892069757,-0.0007172305486164987,-0.0007148234290070832,-199.10177612304688,315.2391357421875,-10.527942657470703,260.9520568847656,-232.27420043945312,16.51491355895996,371.31640625,-141.01690673828125,0.3145332336425781,-0.004055058117955923,0.007168177515268326,0.0005042501725256443,-0.0034005925990641117,-0.0007944388780742884,0.001282902667298913,-0.4572393000125885,-0.10738906264305115,-0.9128147959709167,-0.0,1539.890380859375,3130.046875,2647.86279296875,1488.1805419921875
1762838089.286932,9500912255140419907,1066,24.288951873779297,31.81613540649414,54.72026062011719,52.59736633300781,-4.7166643142700195,5.469694137573242,-1.1102110147476196,5.783959865570068,10.447196006774902,172.0636749267578,47.568965911865234,61.7176399230957,-1.2304939781947882e-13,-1.230493436093702e-13,0.0,0.0,0.0003047801146749407,0.0002543722512200475,0.0003025292244274169,0.00024253559240605682,-0.0008528027101419866,-0.00086202472448349,-0.0006945178029127419,-0.0006921288440935314,-198.51524353027344,315.59063720703125,-11.691925048828125,260.48876953125,-231.66726684570312,16.77777099609375,372.1268005371094,-141.12428283691406,0.3145332336425781,-0.004041839390993118,0.007176498416811228,0.0004941904335282743,-0.0034321960993111134,-0.0008159575518220663,0.001211472088471055,-0.4584180414676666,-0.1125057116150856,-0.9165762662887573,-0.0,1539.1854248046875,3129.4716796875,2646.87548828125,1488.5277099609375
1762838090.2945185,9500912255140419907,1087,24.29058074951172,31.81645965576172,54.72080612182617,52.59825134277344,-4.742927551269531,5.5032219886779785,-1.0854005813598633,5.808323383331299,10.500840187072754,176.43568420410156,51.7934455871582,58.44534683227539,-1.2304939781947882e-13,-1.230493436093702e-13,0.0,0.0,0.00029770497349090874,0.00024773948825895786,0.00029543632990680635,0.00023592673824168742,-0.0008497379603795707,-0.0008590287179686129,-0.0007013758295215666,-0.0006989573012106121,-198.9010009765625,315.4551086425781,-11.367894172668457,260.8275146484375,-232.1705780029297,16.353872299194336,371.7630920410156,-141.45909118652344,0.3145294189453125,-0.00404669065028429,0.007186854258179665,0.0005042757256887853,-0.0034118550829589367,-0.0008079250110313296,0.0012748708250001073,-0.45836883783340454,-0.11097834259271622,-0.9143128991127014,-0.0,1539.6536865234375,3129.85107421875,2647.587158203125,1489.270263671875
1762838091.334232,9500912255140419907,1109,24.451412200927734,31.694791793823242,54.7952995300293,52.46225357055664,4.911012649536133,-1.7472355365753174,0.9090452790260315,-2.103745937347412,95.00383758544922,246.19993591308594,-183.18145751953125,13.746313095092773,-1.2304939781947882e-13,-1.230493436093702e-13,0.0,0.0,0.0002450699685141444,0.00016320025315508246,0.000256995641393587,0.00015709362924098969,-0.00149030820466578,-0.001482586725614965,-0.0011269829701632261,-0.0011295437579974532,-161.03663635253906,351.6846618652344,11.642962455749512,253.25656127929688,-232.54823303222656,11.038904190063477,361.2496643066406,-130.23089599609375,0.3145637512207031,-0.006206329446285963,0.008970528841018677,-0.0005493034841492772,-0.0022169966250658035,-0.0010247473837807775,-0.0017793418373912573,0.018770670518279076,-0.14395847916603088,0.3701530396938324,-0.0,1608.989990234375,3096.809326171875,2665.93359375,1365.156494140625
1762838092.3455217,9500912255140419907,1130,24.449573516845703,31.69316864013672,54.794498443603516,52.46295166015625,4.886984348297119,-1.7653404474258423,0.8853524327278137,-2.084970474243164,92.34172821044922,247.55445861816406,-186.06483459472656,17.608694076538086,-1.2304939781947882e-13,-1.230493436093702e-13,0.0,0.0,0.0002458227099850774,0.00016256676462944597,0.0002577712293714285,0.00015643122605979443,-0.0014893480110913515,-0.0014816652983427048,-0.0011241015745326877,-0.0011266476940363646,-160.96298217773438,351.58367919921875,11.4990873336792,253.28871154785156,-232.35765075683594,10.995611190795898,361.2399597167969,-130.34658813476562,0.3145637512207031,-0.006197958253324032,0.008978128433227539,-0.0005465163267217577,-0.002227128716185689,-0.0010257973335683346,-0.0017810275312513113,0.017778756096959114,-0.1444442719221115,0.36654022336006165,-0.0,1608.16943359375,3096.3984375,2665.20361328125,1365.69921875
1762838093.3809922,9500912255140419907,1152,24.2911319732666,31.815916061401367,54.7218132019043,52.59869384765625,-4.905648231506348,5.479305744171143,-1.0639429092407227,5.587934970855713,-9.119510650634766,178.0718536376953,48.72231674194336,52.23601150512695,-1.2304939781947882e-13,-1.230493436093702e-13,0.0,0.0,0.0002937261888291687,0.0002621680614538491,0.0002911724732257426,0.0002508099132683128,-0.0008397992933169007,-0.0008489264291711152,-0.0007747951312921941,-0.0007724454044364393,-199.2482147216797,314.6675109863281,-7.460973739624023,262.4632263183594,-232.12115478515625,17.273143768310547,370.1090087890625,-139.90354919433594,0.31452178955078125,-0.004078952595591545,0.007173297461122274,0.0004657852405216545,-0.0034254100173711777,-0.0007894020527601242,0.0011792912846431136,-0.461087703704834,-0.09915778040885925,-0.915081262588501,-0.0,1537.7708740234375,3129.34912109375,2647.17138671875,1488.7578125
1762838094.384295,9500912255140419907,1173,24.289886474609375,31.81304359436035,54.72023010253906,52.59752655029297,-4.946998596191406,5.40040397644043,-1.1017173528671265,5.540102481842041,-11.701125144958496,175.0141143798828,45.973052978515625,49.92934036254883,-1.2304939781947882e-13,-1.230493436093702e-13,0.0,0.0,0.0002980039862450212,0.0002636068675201386,0.000295489706331864,0.000252157828072086,-0.0008453608024865389,-0.0008544719312340021,-0.0007599345408380032,-0.0007575902272947133,-198.66932678222656,314.9075622558594,-8.204538345336914,261.833251953125,-231.65904235839844,17.361780166625977,370.3808288574219,-139.84588623046875,0.3145256042480469,-0.004073429387062788,0.007147870492190123,0.0004754427936859429,-0.003417674917727709,-0.0007840957259759307,0.0011961439158767462,-0.4598707854747772,-0.10121165961027145,-0.9141120910644531,-0.0,1536.859619140625,3128.0693359375,2645.61328125,1487.500244140625
1762838095.3901017,9500912255140419907,1194,24.291589736938477,31.81220245361328,54.72028350830078,52.598384857177734,-4.860162258148193,5.4699177742004395,-1.05343759059906,5.638896942138672,-1.8239020109176636,172.89517211914062,51.83367919921875,51.16312789916992,-1.2304939781947882e-13,-1.230493436093702e-13,0.0,0.0,0.00029624454327858984,0.0002545620664022863,0.0002938299730885774,0.00024294288596138358,-0.0008454219787381589,-0.0008546158787794411,-0.0007365904748439789,-0.0007342102471739054,-198.92239379882812,314.97723388671875,-9.459968566894531,261.46563720703125,-232.00209045410156,16.784399032592773,370.83050537109375,-140.63201904296875,0.3145179748535156,-0.004062336403876543,0.0071673085913062096,0.0004894239827990532,-0.003410635981708765,-0.0007928928826004267,0.001248829299584031,-0.4593968689441681,-0.10498455166816711,-0.9121584296226501,-0.0,1538.4656982421875,3128.30712890625,2646.6904296875,1488.529541015625
1762838096.3966713,9500912255140419907,1215,24.312223434448242,31.8154239654541,54.71036148071289,52.53696060180664,1.3223289251327515,0.26285648345947266,-0.5659460425376892,-3.6524980068206787,375.59637451171875,-307.1665344238281,32.401084899902344,-550.6976928710938,-1.2304939781947882e-13,-1.230493436093702e-13,0.0,0.0,0.00015904610336292535,0.00021379087411332875,0.00016850480460561812,0.00021335468045435846,-0.001153305172920227,-0.0011456802021712065,-0.0013754051178693771,-0.0013777633430436254,-181.33653259277344,329.1634826660156,25.67742919921875,260.9147033691406,-235.94424438476562,14.229387283325195,343.2839050292969,-126.94316101074219,0.3145790100097656,-0.006826737895607948,0.0037650330923497677,-0.001548426691442728,0.0025354884564876556,0.0005243100458756089,-0.011119462549686432,0.358490526676178,0.0791310966014862,-0.7353366017341614,-0.0,1585.0164794921875,3096.555419921875,2598.426025390625,1386.791015625
1762838097.4332988,9500912255140419907,1237,24.180143356323242,32.626617431640625,55.0533447265625,52.45106887817383,-4.758349895477295,8.329153060913086,2.497807025909424,-0.20429490506649017,73.74063110351562,24.649484634399414,58.08323287963867,-116.39444732666016,-1.2304939781947882e-13,-1.230493436093702e-13,0.0,0.0,0.00025837268913164735,0.0004113305767532438,0.00032065517734736204,0.0004790165403392166,-0.0006255246116779745,-0.0006436720723286271,-0.001271408866159618,-0.0012562467018142343,-209.04417419433594,310.2984619140625,20.913829803466797,257.89251708984375,-231.47744750976562,25.582311630249023,442.4390869140625,-179.88095092773438,0.3141288757324219,-0.0008689696551300585,-0.0034168183337897062,-0.0017549723852425814,0.0007364987395703793,0.0006755978101864457,0.012972338125109673,-0.03312104567885399,0.0383383110165596,-0.10367067158222198,-0.05454584211111069,1529.26904296875,3305.4248046875,2859.693359375,1389.453125
1762838098.4390664,9500912255140419907,1258,31.673208236694336,29.54821014404297,53.17186737060547,54.436134338378906,-30.066890716552734,-56.27039337158203,-16.149580001831055,-17.46565055847168,4720.76806640625,-1696.40966796875,-2363.146728515625,-4720.66064453125,28.785614013671875,29.347187042236328,3.8033385276794434,3.986990451812744,4.453469753265381,4.416581153869629,-0.0011938619427382946,-0.0011626103660091758,-0.07091084122657776,-0.07494042813777924,-0.00469854986295104,-0.0026158157270401716,134.35682678222656,91.91796875,236.88973999023438,241.5045623779297,2511.41015625,1103.3079833984375,-102.84881591796875,-98.59369659423828,0.300048828125,-0.23772700130939484,0.03163165599107742,3.878100872039795,-0.01982884667813778,0.10766307264566422,0.0059851398691535,-1.3730099201202393,-0.16887901723384857,-0.8706072568893433,-0.0,2784.1298828125,1821.100830078125,1392.0413818359375,2328.36376953125
1762838099.4912622,9500912255140419907,1280,41.153038024902344,20.14381980895996,52.05255889892578,57.21424865722656,23.255699157714844,28.205028533935547,47.8803825378418,24.00385093688965,-775.5852661132812,10069.4306640625,1715.75537109375,-2100.831298828125,15.89565372467041,18.918481826782227,7.87341833114624,7.258935928344727,1.095717430114746,1.5495802164077759,-0.004736961796879768,-0.0006323866546154022,0.07306661456823349,0.07072106748819351,0.028721440583467484,0.00966393481940031,-445.81329345703125,-0.0,-2279.8994140625,-582.6466674804688,4771.95068359375,0.0,501.1595153808594,-68.11161804199219,0.3041877746582031,-0.11162589490413666,0.08392585068941116,7.521373748779297,0.0058588143438100815,-0.4192717969417572,-0.005112645216286182,-1.4060479402542114,-2.7481133937835693,-0.41629505157470703,0.14271697402000427,5006.2822265625,686.1288452148438,1363.167724609375,3831.55712890625
1762838100.5396445,9500912255140419907,1302,30.2711181640625,29.556377410888672,54.711944580078125,54.9599609375,55.345787048339844,159.61231994628906,-35.71617126464844,-125.55003356933594,-3560.7373046875,16169.6923828125,-14064.0478515625,-3174.269775390625,7.007863998413086,7.010266304016113,7.023282527923584,7.003922939300537,-0.0003108136588707566,0.0003940504393540323,-0.0017025506822392344,-0.0007646838203072548,0.0011928831227123737,-0.0048722331412136555,-0.005492048803716898,-0.0019321544095873833,-173.2186279296875,693.8804321289062,213.21881103515625,123.6748046875,-19.125144958496094,45.340087890625,-93.16463470458984,-37.15913772583008,0.30303192138671875,-0.015281809493899345,0.1647890955209732,7.003821849822998,-0.08508885651826859,-0.009877192787826061,-0.05334346368908882,0.3689865469932556,-0.43484753370285034,2.8510794639587402,-0.0,2250.409912109375,4719.81591796875,1763.9227294921875,2597.90478515625
1762838101.5456202,9500912255140419907,1323,27.98810577392578,30.564170837402344,54.200340270996094,54.26850891113281,15.245656967163086,18.04913330078125,76.41161346435547,-17.857837677001953,5038.31982421875,-7517.640625,7463.8193359375,-3479.13671875,5.013284683227539,4.975546836853027,4.995260715484619,4.974160671234131,0.0001828274253057316,0.000812447804491967,0.0004396571603138,-0.0004994809278286994,0.0010120978113263845,-0.004307038616389036,-0.017012016847729683,-0.014726575464010239,-197.63697814941406,612.3880004882812,1018.2095947265625,859.540771484375,-14.411018371582031,79.11553955078125,-53.53419494628906,-30.055278778076172,0.28714752197265625,-0.08325668424367905,0.0017663799226284027,4.971050262451172,0.007551153656095266,-0.05667756497859955,-0.03378162905573845,0.01709350198507309,0.012377419508993626,-0.07791547477245331,-0.0,2471.51416015625,2927.971435546875,2792.302734375,2565.7197265625
1762838102.5498939,9500912255140419907,1344,27.454540252685547,30.663490295410156,55.43962097167969,53.356842041015625,5.307626247406006,23.03696632385254,95.84329986572266,1.8739240169525146,-3992.0029296875,795.5022583007812,6680.17236328125,-2.428433418273926,3.5371105670928955,3.5263116359710693,3.5237667560577393,3.5272154808044434,0.00024280206707771868,0.0008107151370495558,0.0006226011319085956,6.793986540287733e-05,0.002242942340672016,-0.0019175433553755283,-0.002122647827491164,-0.0003404215967748314,-281.92181396484375,332.65325927734375,22.452070236206055,88.56258392333984,-18.076942443847656,73.50398254394531,70.14620971679688,-4.580961227416992,0.2974281311035156,-0.0035736055579036474,0.031755298376083374,3.5149624347686768,-0.006875619292259216,-0.0026259468868374825,0.005486965645104647,-1.3521329164505005,-0.1493513435125351,1.0167171955108643,-0.0,2025.9339599609375,2929.31298828125,3536.59033203125,2330.5029296875
1762838103.583197,9500912255140419907,1367,25.35666275024414,32.367919921875,54.58158493041992,52.70541000366211,-3.2746357917785645,-0.9461259245872498,10.33737564086914,-11.81577205657959,-1327.0836181640625,-839.7605590820312,1743.55029296875,286.6329650878906,0.0,0.0,0.0,0.0,-0.003269174601882696,-0.003815394826233387,-0.0031555769965052605,-0.0037550684064626694,0.00023018757929094136,0.0002465900906827301,0.001959078013896942,0.00195388775318861,-286.7601623535156,448.6241149902344,111.7845687866211,29.785762786865234,-134.96034240722656,-157.012939453125,-129.83021545410156,-43.03080749511719,0.3041419982910156,0.0004353158874437213,0.005616990849375725,-0.0015886470209807158,0.0076737734489142895,0.002535860287025571,-0.004359391983598471,0.9624396562576294,0.1024966910481453,0.02139597199857235,-0.0,1781.780517578125,2900.711669921875,2514.607421875,1617.7645263671875
1762838104.5944264,9500912255140419907,1388,24.891698837280273,33.008384704589844,55.39631652832031,52.190975189208984,12.743927001953125,19.561277389526367,-4.623927116394043,-7.259476661682129,-195.9906005859375,150.13523864746094,-1044.2894287109375,61.14760208129883,1.3750091791152954,1.3748390674591064,1.3805345296859741,1.3806304931640625,0.0005076386150904,0.000177860347321257,0.00011702148913173005,0.00032360097975470126,0.00040486297802999616,-0.001439878367818892,-0.0023067982401698828,-0.001471783616580069,-54.39888381958008,239.48390197753906,93.26558685302734,114.19961547851562,26.649499893188477,-16.698535919189453,-12.220695495605469,-20.57916831970215,0.3075218200683594,-0.0025288520846515894,0.022382523864507675,1.3616958856582642,0.0022833002731204033,-0.0016279558185487986,0.04010298475623131,0.7510973811149597,-0.05020611360669136,1.403809666633606,-0.0,1610.122314453125,3482.35302734375,2932.937255859375,1101.544921875
1762838105.6309445,9500912255140419907,1410,25.752927780151367,35.91640853881836,54.64143371582031,52.62736892700195,-39.116336822509766,14.278919219970703,6.63776159286499,38.97842025756836,-1233.6961669921875,-608.7360229492188,1038.436767578125,4677.11865234375,3.9444689750671387,3.040221929550171,2.649020195007324,2.8047783374786377,0.8358979225158691,0.6414962410926819,-0.0007779062143526971,-0.003680745605379343,-0.06689422577619553,-0.07010907679796219,-0.012005854398012161,-0.01049545593559742,87.78280639648438,504.36663818359375,632.9669189453125,485.0648193359375,1556.426025390625,3425.056396484375,-66.5553970336914,-171.36463928222656,0.30718994140625,-0.2614656984806061,-0.01976126804947853,2.712191104888916,-0.0041801645420491695,0.05015116557478905,0.023113111034035683,-0.8214144110679626,-0.06402186304330826,-0.6046363115310669,-0.0,1448.780517578125,3321.845703125,2683.60693359375,1777.156005859375
1762838106.6487045,9500912255140419907,1431,28.88532829284668,28.393091201782227,53.733245849609375,54.40694808959961,24.72941017150879,-21.185091018676758,20.511228561401367,-7.796240329742432,3460.213623046875,-1212.7213134765625,2108.552490234375,-483.22027587890625,1.778173804283142,1.7706080675125122,1.782145619392395,1.761553406715393,0.00039436001679860055,0.0008879351080395281,0.00047216503298841417,-0.0008504794095642865,-0.0013030696427449584,-0.0035869181156158447,-0.011286157183349133,-0.010256536304950714,82.29686737060547,323.8980712890625,559.259033203125,750.92529296875,28.67671012878418,-56.316524505615234,33.197364807128906,-70.38946533203125,0.3010444641113281,-0.055834926664829254,0.02706962078809738,1.7532296180725098,0.005691037513315678,-0.0344013087451458,-0.030386269092559814,0.07516946643590927,0.06007343530654907,-0.24793954193592072,-0.0,2575.08740234375,2253.267578125,2285.16162109375,2639.341796875
1762838107.693198,9500912255140419907,1453,30.024330139160156,27.437963485717773,53.55263137817383,54.510414123535156,0.7548770904541016,-4.646883964538574,28.33672523498535,9.355997085571289,-1131.490234375,-1427.549560546875,1808.8472900390625,180.47857666015625,-2.7874931252114266e-09,-1.3114095365196476e-09,-3.980094476219165e-09,0.0,-0.05003787577152252,-0.0496637262403965,-0.05014713481068611,-0.04979906231164932,-0.0002083738800138235,-0.0005286653176881373,-0.0015117311850190163,-0.001371391350403428,13.148971557617188,29.54984474182129,70.16635131835938,70.90682220458984,-2213.11767578125,-1898.1549072265625,-2209.331787109375,-2621.88427734375,0.30146026611328125,-0.004192600026726723,-0.012981800362467766,0.14940783381462097,0.018323827534914017,-0.0007989427540451288,0.0006279326626099646,0.4756156802177429,0.016765767708420753,0.22528937458992004,7.728235505055636e-05,2300.297607421875,1876.1590576171875,2112.2392578125,2611.314208984375
1762838108.7417648,9500912255140419907,1475,29.636363983154297,27.40716552734375,53.30754470825195,54.547298431396484,0.08530457317829132,-0.07336578518152237,-0.13190436363220215,-0.008280128240585327,8.394415855407715,2.615467071533203,-6.582550048828125,-4.423248767852783,-1.7347939057499318e-11,-1.734794599639322e-11,0.0,0.0,0.0017710623797029257,0.0012299700174480677,0.0017793459119275212,0.001223331200890243,0.0007971440791152418,0.0008079583058133721,0.002058829879388213,0.002053831936791539,-26.296207427978516,267.638916015625,97.63212585449219,164.10035705566406,-168.24429321289062,-163.4762420654297,35.28604507446289,16.21598243713379,0.3014488220214844,0.0009288417641073465,-0.002442909637466073,-0.0014352994039654732,0.003921621944755316,0.0018965404015034437,0.004961679689586163,0.012307170778512955,0.005457158200442791,0.011736865155398846,-0.0,2560.67822265625,2189.2626953125,1864.3563232421875,2570.4541015625
1762838109.795469,9500912255140419907,1497,29.738523483276367,27.388206481933594,53.31367874145508,54.57807159423828,0.26960575580596924,0.03821183741092682,-0.003859781427308917,0.03242216631770134,15.399696350097656,-2.460408926010132,3.4654290676116943,0.3937112092971802,-1.7347939057499318e-11,-1.734794599639322e-11,0.0,0.0,0.0015508898068219423,0.0012395736994221807,0.00155390496365726,0.0012384549481794238,0.0010331915691494942,0.0010433073621243238,0.0016248453175649047,0.001620207098312676,4.0361528396606445,246.33209228515625,96.08201599121094,151.1764678955078,-152.6525115966797,-162.8101806640625,40.971534729003906,4.460272312164307,0.3014068603515625,0.0008068868773989379,-0.0032469010911881924,-0.0011544275330379605,0.004140421748161316,0.002075805561617017,0.004479480907320976,0.004211504012346268,0.00212619686499238,0.017001613974571228,-0.0,2579.9482421875,2184.882568359375,1873.239501953125,2588.9228515625
1762838110.7955742,9500912255140419907,1518,29.90104866027832,27.456449508666992,53.33830642700195,54.59098815917969,0.06704395264387131,0.04185168072581291,0.03900739178061485,-0.025395436212420464,-6.552706718444824,-0.7885305881500244,-0.3932952880859375,0.618309497833252,-1.7347939057499318e-11,-1.734794599639322e-11,0.0,0.0,0.0014718634774908423,0.0013142946409061551,0.0014708670787513256,0.0013166002463549376,0.001155938021838665,0.0011660723248496652,0.0013569577131420374,0.0013523375382646918,16.584726333618164,236.02447509765625,95.76829528808594,142.48178100585938,-147.61917114257812,-173.65380859375,44.513362884521484,0.4822463393211365,0.3012847900390625,0.0011405744589865208,-0.004066877067089081,-0.001311279833316803,0.0038390441332012415,0.0019031381234526634,0.003029264509677887,-0.002494961954653263,-0.0005882472032681108,-0.0035859246272593737,-0.0,2610.13134765625,2195.48095703125,1890.16064453125,2596.90673828125
1762838111.8392708,9500912255140419907,1540,30.074600219726562,27.56706428527832,53.36724853515625,54.607486724853516,0.21622222661972046,0.1940428763628006,0.003994381986558437,-0.025227677077054977,7.668956756591797,8.026997566223145,3.0305497646331787,2.6005594730377197,-1.7347939057499318e-11,-1.734794599639322e-11,0.0,0.0,0.0014293143758550286,0.0013563195243477821,0.0014261985197663307,0.0013611442409455776,0.0012866287725046277,0.001296834321692586,0.0012657452607527375,0.0012611120473593473,21.516294479370117,227.88385009765625,94.09099578857422,139.61495971679688,-139.8018798828125,-176.197021484375,49.84465789794922,2.3623452186584473,0.3011283874511719,0.0014775386080145836,-0.004522782750427723,-0.0016230989713221788,0.003556083654984832,0.0017298533348366618,0.0021063201129436493,0.0010149803711101413,-0.0005050265463069081,-4.6342716814251617e-05,-0.0,2647.10498046875,2217.603515625,1909.901611328125,2608.72265625
1762838112.8402534,9500912255140419907,1561,29.899627685546875,27.559518814086914,53.24114990234375,54.59726333618164,0.5662479996681213,0.6283352375030518,1.0294665098190308,1.1154972314834595,3.5802578926086426,-2.147768020629883,-11.270898818969727,18.727956771850586,-1.7347939057499318e-11,-1.734794599639322e-11,0.0,0.0,0.001303628901951015,0.0012445527827367187,0.0012972523691132665,0.0012464066967368126,0.0013535161269828677,0.0013626676518470049,0.0013751044170930982,0.0013710446655750275,20.8463134765625,216.86785888671875,83.48649597167969,133.6084442138672,-143.93919372558594,-181.95252990722656,57.01924133300781,-21.677162170410156,0.3012962341308594,0.0019436745205894113,-0.005400776397436857,-0.0008961628773249686,0.0028120828792452812,0.0020654823165386915,0.006777643226087093,0.009037579409778118,-0.015359490178525448,-0.0034012713003903627,8.656935096951202e-05,2612.55712890625,2219.117919921875,1838.5247802734375,2602.115966796875
1762838113.8445098,9500912255140419907,1582,28.18490219116211,29.04414176940918,54.15449142456055,54.036163330078125,-11.355814933776855,37.87092971801758,24.943696975708008,-0.5022301077842712,-1211.7236328125,2930.011474609375,1441.3023681640625,86.33678436279297,1.8910282850265503,1.8796738386154175,1.8895927667617798,1.8754812479019165,0.00029805631493218243,0.0009018561686389148,0.0002744690573308617,0.00040013896068558097,-0.00033110042568296194,-0.0027262589428573847,-0.009140620008111,-0.008059710264205933,-56.0115966796875,332.2346496582031,472.3179626464844,715.6096801757812,20.499208450317383,75.04531860351562,23.725656509399414,42.45701599121094,0.2976951599121094,-0.043828677386045456,0.007313882000744343,1.864485263824463,0.006688249763101339,-0.028366712853312492,-0.008412040770053864,0.09428281337022781,-0.07640140503644943,-0.2940446138381958,-0.0,2211.62939453125,2792.974609375,2300.9697265625,2389.36083984375
1762838114.848097,9500912255140419907,1603,28.96267318725586,28.55881118774414,53.5801887512207,54.275115966796875,0.27425792813301086,0.4137076139450073,0.05425335466861725,-0.009695466607809067,-5.333897590637207,8.617203712463379,0.14591945707798004,-0.1383095681667328,-1.4098176619181668e-11,-1.409818442543731e-11,0.0,0.0,0.0017931939801201224,0.0016445886576548219,0.001790217007510364,0.0016498187324032187,0.0015388730680570006,0.0015513217076659203,0.002004130044952035,0.0019985120743513107,59.277557373046875,230.04452514648438,163.18153381347656,218.29144287109375,-151.83995056152344,-183.7493133544922,-2.149973154067993,34.58661651611328,0.2971649169921875,0.0008746327366679907,-0.003908812068402767,-0.002558160573244095,0.002356598386541009,-0.0009145506774075329,0.003973021637648344,-0.0012300220550969243,0.0031222463585436344,-0.0013272990472614765,-0.0,2423.20068359375,2410.81494140625,2008.92822265625,2423.08447265625
1762838115.8885775,9500912255140419907,1625,29.267396926879883,28.837238311767578,53.6103401184082,54.299129486083984,0.7386453151702881,-0.02313251979649067,-0.13560442626476288,-0.0867469534277916,-16.97043228149414,-5.344296455383301,-5.785374641418457,-2.258795976638794,-1.4098176619181668e-11,-1.409818442543731e-11,0.0,0.0,0.0016637054504826665,0.001623479533009231,0.0016571119194850326,0.001631476217880845,0.001761524355970323,0.001773801282979548,0.0020756993908435106,0.002070211572572589,57.70130920410156,216.94485473632812,161.11444091796875,214.6508331298828,-138.80419921875,-185.3140106201172,8.737046241760254,53.93830108642578,0.2969093322753906,0.0014348317636176944,-0.005744866095483303,-0.002737056463956833,0.0019517253385856748,-0.0014362507499754429,0.0035263760946691036,0.0061362748965620995,0.002202194882556796,0.01788775809109211,-0.0,2485.34912109375,2462.7138671875,2029.8094482421875,2440.449951171875
1762838116.888968,9500912255140419907,1646,29.262901306152344,28.867746353149414,53.61443328857422,54.2949104309082,0.01896962709724903,0.008730340749025345,0.010131506249308586,-0.0030178953893482685,1.148061990737915,-2.1651947498321533,-0.9000816941261292,-2.026259183883667,-1.4098176619181668e-11,-1.409818442543731e-11,0.0,0.0,0.0016016470035538077,0.0015674972673878074,0.001594704226590693,0.001575215719640255,0.0017158897826448083,0.0017275008140131831,0.001966003095731139,0.0019608179572969675,63.20547866821289,223.4184112548828,171.2354278564453,224.5663299560547,-139.9794464111328,-191.0706329345703,6.707282543182373,52.07848358154297,0.2968788146972656,0.001490863272920251,-0.005087599158287048,-0.0027054764796048403,0.0017642427701503038,-0.001374933635815978,0.0030488078482449055,0.001984643517062068,0.0006672916933894157,0.0034496565349400043,-0.0,2482.23828125,2466.7587890625,2032.371826171875,2438.81787109375
1762838117.9360487,9500912255140419907,1668,29.267894744873047,28.871057510375977,53.61433792114258,54.29357147216797,-0.0024527027271687984,-0.007023648824542761,-0.007358108181506395,-0.026533784344792366,0.15420977771282196,-1.2632302045822144,-0.26649221777915955,-1.6951762437820435,-1.4098176619181668e-11,-1.409818442543731e-11,0.0,0.0,0.0015776180662214756,0.0015538664301857352,0.0015704730758443475,0.0015616699820384383,0.0016927967080846429,0.0017041962128132582,0.0019082408398389816,0.0019031495321542025,65.55935668945312,226.04244995117188,175.52566528320312,229.23513793945312,-142.15338134765625,-192.65719604492188,4.672482490539551,51.758174896240234,0.2968711853027344,0.0015086877392604947,-0.004832066595554352,-0.0027221376076340675,0.0016532833687961102,-0.0014139872509986162,0.002802116796374321,0.00023114631767384708,9.704201511340216e-05,-0.00021472296793945134,-0.0,2482.638671875,2467.33447265625,2031.6414794921875,2437.9384765625
1762838118.9377124,9500912255140419907,1689,29.267257690429688,28.871334075927734,53.613624572753906,54.29349899291992,-0.0034645197447389364,-0.00704079819843173,-0.0020116567611694336,0.001788139226846397,0.41574230790138245,1.937895655632019,0.8717178702354431,0.3218650221824646,-1.4098176619181668e-11,-1.409818442543731e-11,0.0,0.0,0.0015743175754323602,0.001547931577078998,0.0015672016888856888,0.0015555713325738907,0.0016828097868710756,0.0016941792564466596,0.0019026512745767832,0.0018975709099322557,64.36486053466797,227.11241149902344,175.8978729248047,229.6694793701172,-142.1964111328125,-193.29071044921875,4.428175926208496,51.2954216003418,0.2968711853027344,0.0014933437341824174,-0.0048398724757134914,-0.002703130943700671,0.0016503717051818967,-0.001409815507940948,0.002835374791175127,9.288544970331714e-05,1.936917942657601e-05,-0.00015794298087712377,-0.0,2482.682373046875,2467.42578125,2031.324951171875,2437.811767578125
1762838119.9465113,9500912255140419907,1710,29.26373863220215,28.86838150024414,53.61343765258789,54.293209075927734,0.006929039489477873,0.006817280780524015,-0.0037997958716005087,-0.00044703480671159923,0.7778404951095581,0.7577239274978638,0.24139879643917084,0.1609325110912323,-1.4098176619181668e-11,-1.409818442543731e-11,0.0,0.0,0.0015743139665573835,0.001550269895233214,0.0015671835280954838,0.0015580356121063232,0.0016889732796698809,0.0017003497341647744,0.0019018995808437467,0.0018968165386468172,65.840087890625,226.42613220214844,175.8763885498047,229.70376586914062,-142.34774780273438,-192.9541473388672,4.426770210266113,51.472900390625,0.2968711853027344,0.0014948872849345207,-0.004817562643438578,-0.0027095696423202753,0.0016536967596039176,-0.0014099091058596969,0.002820395864546299,-2.221204113084241e-06,1.7951241488844971e-06,0.00012975184654351324,-0.0,2481.849365234375,2466.875,2031.15478515625,2437.619140625
1762838120.99339,9500912255140419907,1732,29.26796531677246,28.8723087310791,53.61368942260742,54.29258728027344,0.004230028949677944,-0.005856962874531746,-0.04577108100056648,-0.02364477701485157,0.4740864038467407,0.49193787574768066,-2.613199234008789,-1.350810170173645,-1.4098176619181668e-11,-1.409818442543731e-11,0.0,0.0,0.001594649744220078,0.0015601287595927715,0.001587813487276435,0.0015678505878895521,0.001708806841634214,0.0017204121686518192,0.0019690741319209337,0.001963899005204439,61.69094467163086,224.1000518798828,170.78350830078125,226.32577514648438,-140.09378051757812,-191.64613342285156,6.387809753417969,52.271907806396484,0.2968711853027344,0.0015500554582104087,-0.005024625454097986,-0.0027586710639297962,0.001718381536193192,-0.0014079236425459385,0.002920802216976881,0.004367362707853317,0.0003329656319692731,0.008073810487985611,-0.0,2482.99365234375,2467.4873046875,2031.284423828125,2437.017578125
1762838122.0975943,9500912255140419907,1751,29.25893211364746,28.863567352294922,53.60653305053711,54.294517517089844,-0.08698494732379913,-0.02119733951985836,0.14906002581119537,0.3732488453388214,-1.5648382902145386,-0.6602805852890015,3.1610779762268066,7.999359130859375,-1.4098176619181668e-11,-1.409818442543731e-11,0.0,0.0,0.0018789076711982489,0.0017642017919570208,0.0018718584906309843,0.0017708548111841083,0.0020733049605041742,0.0020874396432191133,0.002676057629287243,0.0026697672437876463,29.983884811401367,185.1256103515625,120.39195251464844,169.38661193847656,-113.22989654541016,-167.66282653808594,31.517175674438477,71.8364028930664,0.2968864440917969,0.0013657936360687017,-0.00893356278538704,-0.002318758051842451,0.002764897421002388,-0.0013524092501029372,0.006984936539083719,0.02371518686413765,0.0011195893166586757,0.0888373926281929,-0.0,2488.430419921875,2466.31884765625,2033.52587890625,2443.4638671875
1762838129.684273,9500912255140419907,1752,29.264469146728516,28.884178161621094,53.61329650878906,54.331932067871094,0.13469648361206055,0.38865751028060913,-0.5079219937324524,0.20842711627483368,11.337206840515137,20.960750579833984,-33.599300384521484,-8.42929458618164,-1.4098176619181668e-11,-1.409818442543731e-11,0.0,0.0,0.0016395729035139084,0.00151643727440387,0.0016337853157892823,0.0015218022745102644,0.0017632396193221211,0.0017752053681761026,0.0023226176854223013,0.002317196223884821,55.658294677734375,216.35902404785156,145.9831085205078,200.74977111816406,-131.4196319580078,-189.36793518066406,14.436504364013672,53.314395904541016,0.29685211181640625,0.0017468935111537576,-0.006097455509006977,-0.0028400758747011423,0.0019266258459538221,-0.0012397482059895992,0.0035750928800553083,-0.042870789766311646,0.005761698354035616,-0.17438584566116333,-0.0,2483.7255859375,2474.47265625,2033.162841796875,2460.060302734375
1762838130.747701,9500912255140419907,1773,29.27135467529297,28.86939239501953,53.61140441894531,54.29692459106445,0.2953782379627228,-0.058338042348623276,0.003352761035785079,0.03777443990111351,31.851226806640625,-1.4819201231002808,1.6361472606658936,-0.7376074194908142,-1.4098176619181668e-11,-1.409818442543731e-11,0.0,0.0,0.001563342520967126,0.0015228085685521364,0.0015564553905278444,0.0015301312087103724,0.0016950221033766866,0.0017062770202755928,0.00194051512517035,0.0019354911055415869,66.7384262084961,224.6551055908203,174.36436462402344,228.32408142089844,-139.5665283203125,-194.2089080810547,7.125892639160156,52.611568450927734,0.2968711853027344,0.001314577180892229,-0.004884003661572933,-0.002660255879163742,0.001597980735823512,-0.0016724660526961088,0.0028783369343727827,-0.0046517811715602875,-0.025266868993639946,0.002938625169917941,-0.0,2487.09765625,2466.47021484375,2030.8016357421875,2439.7705078125
1762838131.7864578,9500912255140419907,1794,29.264633178710938,28.86849594116211,53.61137390136719,54.29668045043945,-0.31046566367149353,-0.033192336559295654,-0.03576278313994408,0.026822088286280632,-3.627685785293579,-13.343988418579102,-4.854797840118408,5.51193904876709,-1.4098176619181668e-11,-1.409818442543731e-11,0.0,0.0,0.0015593799762427807,0.0015202485956251621,0.0015525973867624998,0.001527637941762805,0.0016616630600765347,0.001672860118560493,0.001961434492841363,0.0019564398098737,68.68789672851562,227.75611877441406,172.84632873535156,227.13629150390625,-139.28073120117188,-194.9898681640625,7.070587158203125,52.49858093261719,0.2968711853027344,0.001646344899199903,-0.004867868032306433,-0.00269844732247293,0.0016786048654466867,-0.0012523932382464409,0.002824622904881835,-0.0026904998812824488,-0.003491034498438239,0.00033650544355623424,-0.0,2480.371826171875,2465.25146484375,2030.3846435546875,2439.809814453125
1762838132.792408,9500912255140419907,1814,29.267902374267578,28.869298934936523,53.61213302612305,54.295570373535156,-0.14081595838069916,0.08907168358564377,0.021904705092310905,-0.07443129271268845,-28.706336975097656,9.36761474609375,1.4215705394744873,-6.531177997589111,-1.4098176619181668e-11,-1.409818442543731e-11,0.0,0.0,0.0015438311966136098,0.001537912874482572,0.0015363430138677359,0.0015461459988728166,0.0017060318496078253,0.001717239385470748,0.0018248028354719281,0.0018197871977463365,65.58496856689453,224.11366271972656,181.6227569580078,235.6113739013672,-140.2159423828125,-193.51986694335938,5.300516128540039,53.334266662597656,0.29686737060546875,0.0015394953079521656,-0.004835327621549368,-0.002645689295604825,0.0017093727365136147,-0.0011991129722446203,0.002814661944285035,0.006678888574242592,0.028227301314473152,-0.0026896127965301275,-0.0,2480.032470703125,2467.588623046875,2029.9892578125,2438.89404296875
1762838133.835881,9500912255140419907,1835,29.266143798828125,28.867809295654297,53.611663818359375,54.2956657409668,-0.12170522660017014,0.05587935075163841,0.03151595592498779,-0.08203088492155075,-25.776025772094727,7.610766887664795,1.890957236289978,-5.9008588790893555,-1.4098176619181668e-11,-1.409818442543731e-11,0.0,0.0,0.0015434869565069675,0.0015372867928817868,0.001535992487333715,0.001545491861179471,0.0017042562831193209,0.0017154593952000141,0.001824611914344132,0.001819597207941115,65.7475814819336,224.10699462890625,181.5572509765625,235.6994171142578,-140.27841186523438,-193.46429443359375,5.287662029266357,53.29137420654297,0.29686737060546875,0.0015306934947147965,-0.004836009815335274,-0.0026392301078885794,0.0017112324712798,-0.0011951441410928965,0.0028211467433720827,0.006379361264407635,0.02836287021636963,-0.003612697822973132,-0.0,2480.1279296875,2466.70703125,2029.6917724609375,2438.851318359375
1762838134.8466368,9500912255140419907,1855,29.26546859741211,28.869346618652344,53.61174774169922,54.296573638916016,-0.32354143261909485,-0.0406801663339138,-0.04380941018462181,0.018104908987879753,-6.866453647613525,-13.759730339050293,-5.699693202972412,4.506110668182373,-1.4098176619181668e-11,-1.409818442543731e-11,0.0,0.0,0.0015598961617797613,0.0015207858523353934,0.0015531213721260428,0.0015281876549124718,0.0016616267384961247,0.0016728293849155307,0.0019612680189311504,0.0019562719389796257,68.63783264160156,227.7693328857422,172.877685546875,227.12171936035156,-139.19322204589844,-194.96676635742188,7.106008529663086,52.54207992553711,0.2968635559082031,0.0016527115367352962,-0.004870200529694557,-0.0027024925220757723,0.0016760880826041102,-0.001255299779586494,0.0028201844543218613,-0.0027885541785508394,-0.003663080045953393,0.0014405417023226619,-0.0,2480.298583984375,2465.361328125,2030.5091552734375,2439.673583984375
1762838135.8860166,9500912255140419907,1876,29.264938354492188,28.869504928588867,53.61188888549805,54.296451568603516,-0.21480022370815277,-0.03252178430557251,-0.029280779883265495,0.05543231591582298,-5.572288513183594,-6.511061668395996,-3.433227062225342,8.006392478942871,-1.4098176619181668e-11,-1.409818442543731e-11,0.0,0.0,0.001559170545078814,0.0015204406809061766,0.0015523642068728805,0.0015278322389349341,0.0016641769325360656,0.001675379928201437,0.001962092472240329,0.0019570926669985056,68.49073791503906,227.61512756347656,172.87136840820312,227.0978546142578,-139.2827911376953,-195.0028839111328,7.064525604248047,52.52909469604492,0.2968597412109375,0.0016443696804344654,-0.004862708039581776,-0.0026998715475201607,0.0016764698084443808,-0.0012513386318460107,0.0028126544784754515,-0.0018873600056394935,-0.0031435068231076,0.0002127047482645139,-0.0,2481.234375,2466.20166015625,2030.795166015625,2439.95703125
1762838136.8890843,9500912255140419907,1896,29.27107810974121,28.86969757080078,53.612327575683594,54.29716110229492,0.337511271238327,-0.05654990300536156,0.0073760743252933025,0.02302229218184948,32.494956970214844,-1.8037853240966797,1.5154478549957275,-2.5078651905059814,-1.4098176619181668e-11,-1.409818442543731e-11,0.0,0.0,0.0015646334504708648,0.0015239857602864504,0.0015578153543174267,0.001531381974928081,0.0016940899658948183,0.0017053481424227357,0.0019409381784498692,0.0019359135767444968,66.8164291381836,224.66500854492188,174.36224365234375,228.241455078125,-139.51060485839844,-194.10287475585938,7.22206974029541,52.70965576171875,0.2968559265136719,0.0013225228758528829,-0.004875055979937315,-0.0026710117235779762,0.0015926279593259096,-0.001675779465585947,0.0028439571615308523,-0.005214248783886433,-0.02555377408862114,0.0024214338045567274,-0.0,2487.320556640625,2466.51416015625,2031.3729248046875,2439.92578125
1762838137.897789,9500912255140419907,1916,29.267908096313477,28.869470596313477,53.61220169067383,54.29569625854492,-0.1152232214808464,0.06347894668579102,0.025480983778834343,-0.07912515848875046,-24.743375778198242,6.899982452392578,1.9580122232437134,-6.839632034301758,-1.4098176619181668e-11,-1.409818442543731e-11,0.0,0.0,0.001543868100270629,0.0015379833057522774,0.0015363618731498718,0.0015461982693523169,0.0017052509356290102,0.0017164582386612892,0.0018246567342430353,0.001819641562178731,65.69701385498047,224.0872344970703,181.6249542236328,235.7024688720703,-140.2830810546875,-193.45779418945312,5.31312370300293,53.35298538208008,0.2968559265136719,0.0015414950903505087,-0.00484263151884079,-0.0026459365617483854,0.0017058902885764837,-0.0012002256698906422,0.002812023740261793,0.0061660208739340305,0.02814626879990101,-0.003287186613306403,-0.0,2480.48486328125,2467.273681640625,2029.9739990234375,2438.905029296875
1762838138.9355462,9500912255140419907,1937,29.273256301879883,28.870084762573242,53.612152099609375,54.296993255615234,0.40467825531959534,-0.0669434666633606,-0.0073760743252933025,0.0203400831669569,42.87510681152344,-1.9580124616622925,1.515447974205017,-0.938772976398468,-1.4098176619181668e-11,-1.409818442543731e-11,0.0,0.0,0.0015648059779778123,0.0015246191760525107,0.00155794492457062,0.001531998161226511,0.0016988530987873673,0.0017101236153393984,0.001941041206009686,0.0019360071746632457,66.27474212646484,224.32289123535156,174.34596252441406,228.20301818847656,-139.2696533203125,-194.0525360107422,7.231933116912842,52.762184143066406,0.29685211181640625,0.0013262315187603235,-0.004884804133325815,-0.002670775633305311,0.0015879046404734254,-0.0016776865813881159,0.0028485837392508984,-0.004870877135545015,-0.025128580629825592,0.002839215798303485,-0.0,2487.927490234375,2466.88720703125,2031.1058349609375,2439.7724609375
1762838139.947497,9500912255140419907,1957,29.26506805419922,28.86927604675293,53.61188888549805,54.29625701904297,-0.31169500946998596,-0.06023794040083885,-0.03509223088622093,0.015422701835632324,-4.04342794418335,-14.048068046569824,-4.479288578033447,4.465878009796143,-1.4098176619181668e-11,-1.409818442543731e-11,0.0,0.0,0.0015596541343256831,0.0015205465024337173,0.001552871661260724,0.0015279363142326474,0.0016612400067970157,0.001672440441325307,0.00196068175137043,0.0019556854385882616,68.65482330322266,227.80404663085938,172.9286651611328,227.12045288085938,-139.19973754882812,-194.98643493652344,7.0943756103515625,52.53019332885742,0.29685211181640625,0.0016520610079169273,-0.004874641075730324,-0.0027015216182917356,0.0016736997058615088,-0.001255084527656436,0.002817355329170823,-0.003045173129066825,-0.003796645672991872,0.0011780624045059085,-0.0,2480.24462890625,2465.6376953125,2030.638427734375,2439.478759765625
1762838140.947743,9500912255140419907,1977,29.265426635742188,28.87013816833496,53.61201477050781,54.29637908935547,-0.24732202291488647,-0.05632638558745384,-0.03263354301452637,0.04112720116972923,-4.09036922454834,-9.803472518920898,-4.076957702636719,7.201729774475098,-1.4098176619181668e-11,-1.409818442543731e-11,0.0,0.0,0.0015593139687553048,0.0015205169329419732,0.001552510424517095,0.001527906395494938,0.001663120579905808,0.0016743215965107083,0.0019613762851804495,0.001956377876922488,68.5777816772461,227.70037841796875,172.93270874023438,227.10438537597656,-139.2903594970703,-195.00811767578125,7.075356483459473,52.53817367553711,0.2968482971191406,0.0016467412933707237,-0.004867579787969589,-0.00270019075833261,0.0016750836512073874,-0.0012525117490440607,0.0028134756721556187,-0.0023569560144096613,-0.0033782979007810354,0.0003389222256373614,-0.0,2480.971435546875,2466.095703125,2030.82177734375,2439.728515625
1762838141.9978006,9500912255140419907,1998,29.265724182128906,28.870973587036133,53.61240768432617,54.2965202331543,-0.20585952699184418,-0.05286186560988426,-0.01609325408935547,0.04425644502043724,-5.578993797302246,-8.469073295593262,-1.6227363348007202,6.62505578994751,-1.4098176619181668e-11,-1.409818442543731e-11,0.0,0.0,0.001559596974402666,0.0015213768929243088,0.001552795758470893,0.0015288122231140733,0.0016664081485942006,0.001677615218795836,0.001962479902431369,0.0019574780017137527,68.32889556884766,227.48728942871094,172.88461303710938,227.04446411132812,-139.26211547851562,-194.96473693847656,7.103199481964111,52.614524841308594,0.296844482421875,0.0016412591794505715,-0.004850020632147789,-0.002702354919165373,0.0016772064846009016,-0.0012495649280026555,0.0027976848650723696,-0.0015639163320884109,-0.002667589345946908,-0.0005011818720959127,-0.0,2481.4326171875,2466.3671875,2031.284912109375,2439.87109375
1762838143.047916,9500912255140419907,2019,29.263858795166016,28.86993408203125,53.611968994140625,54.296226501464844,-0.25469809770584106,-0.02861022762954235,-0.025257466360926628,0.03553926572203636,-3.124774217605591,-7.657705307006836,-3.1918282508850098,7.2151408195495605,-1.4098176619181668e-11,-1.409818442543731e-11,0.0,0.0,0.0015590946422889829,0.0015200779307633638,0.0015522956382483244,0.0015274548204615712,0.001662521273829043,0.0016737196128815413,0.0019611860625445843,0.0019561895169317722,68.60589599609375,227.70074462890625,172.9359130859375,227.06777954101562,-139.28761291503906,-195.0030975341797,7.06546688079834,52.50758743286133,0.296844482421875,0.0016518457559868693,-0.004877676721662283,-0.002700010547414422,0.0016733609372749925,-0.0012551379622891545,0.002822060137987137,-0.0028203355614095926,-0.0036977531854063272,0.00033980232547037303,-0.0,2480.63232421875,2466.22900390625,2030.8173828125,2439.6435546875
1762838144.095927,9500912255140419907,2040,29.268251419067383,28.87158966064453,53.61225509643555,54.29573440551758,-0.12796372175216675,0.06448477506637573,0.005811452399939299,-0.07197260111570358,-25.67544174194336,6.3501296043396,-0.4693865478038788,-6.303190231323242,-1.4098176619181668e-11,-1.409818442543731e-11,0.0,0.0,0.0015439616981893778,0.0015382730634883046,0.0015364483697339892,0.0015464980388060212,0.0017060411628335714,0.0017172498628497124,0.0018251925939694047,0.0018201782368123531,65.58401489257812,224.0412139892578,181.5463409423828,235.63194274902344,-140.2181854248047,-193.44651794433594,5.336867332458496,53.38916015625,0.2968406677246094,0.001550197135657072,-0.004850358236581087,-0.002648543333634734,0.0017053702613338828,-0.0012043988099321723,0.002822812646627426,0.006349919829517603,0.028049716725945473,-0.002339891856536269,-0.0,2480.406982421875,2467.49853515625,2029.89013671875,2438.95703125
1762838145.1362042,9500912255140419907,2061,29.26567840576172,28.872129440307617,53.612281799316406,54.29648971557617,-0.2270936816930771,-0.027492640540003777,-0.01363456156104803,0.04649161919951439,-7.724761486053467,-6.906687259674072,-0.6571410894393921,6.71893310546875,-1.4098176619181668e-11,-1.409818442543731e-11,0.0,0.0,0.0015593202551826835,0.0015215083258226514,0.0015524800401180983,0.0015289289876818657,0.001668251003138721,0.0016794584225863218,0.001962879905477166,0.0019578791689127684,68.13864135742188,227.21368408203125,172.77984619140625,227.00128173828125,-139.21157836914062,-194.84475708007812,7.1008076667785645,52.633384704589844,0.29683685302734375,0.0016473719151690602,-0.004859252367168665,-0.0027020724955946207,0.0016769744688645005,-0.0012527195503935218,0.002812189282849431,-0.0014243716141209006,-0.0026486532296985388,-0.0002653849951457232,-0.0,2481.2587890625,2466.614013671875,2031.27685546875,2439.885986328125
1762838146.143746,9500912255140419907,2081,29.267799377441406,28.871389389038086,53.61229705810547,54.29545974731445,-0.1420453041791916,0.06940215826034546,0.01609325408935547,-0.08650123327970505,-25.977190017700195,7.23525857925415,0.32186511158943176,-8.341669082641602,-1.4098176619181668e-11,-1.409818442543731e-11,0.0,0.0,0.00154356868006289,0.0015377793461084366,0.0015360472025349736,0.001545983599498868,0.001705220085568726,0.0017164269229397178,0.0018244388047605753,0.001819424331188202,65.63541412353516,224.08006286621094,181.5757293701172,235.65933227539062,-140.2339324951172,-193.46173095703125,5.313045501708984,53.35321807861328,0.29683685302734375,0.0018877137918025255,-0.004863573703914881,-0.0027006352320313454,0.0017572231590747833,-0.0008146112086251378,0.0027440267149358988,0.009352785535156727,0.05127864331007004,-0.007215882185846567,-0.0,2480.220703125,2467.468505859375,2029.936279296875,2438.6298828125
1762838147.1824615,9500912255140419907,2102,29.26582908630371,28.871898651123047,53.612152099609375,54.296382904052734,-0.25816261768341064,-0.04559754952788353,-0.012516974471509457,0.045821066945791245,-3.4064061641693115,-9.508429527282715,-0.5498527884483337,7.7113494873046875,-1.4098176619181668e-11,-1.409818442543731e-11,0.0,0.0,0.00155915436334908,0.0015210456913337111,0.0015523137990385294,0.0015284446999430656,0.0016667648451402783,0.0016779678408056498,0.00196240097284317,0.001957401167601347,68.24594116210938,227.3248291015625,172.8026885986328,227.0181884765625,-139.22100830078125,-194.87867736816406,7.088472843170166,52.59730911254883,0.2968330383300781,0.0016470856498926878,-0.004867659881711006,-0.0026996599044650793,0.0016749094938859344,-0.0012528074439615011,0.002815391169860959,-0.002084467327222228,-0.0028871323447674513,-0.0008762999786995351,-0.0,2481.00048828125,2466.380859375,2031.140869140625,2439.82763671875
1762838148.1921873,9500912255140419907,2122,29.27187728881836,28.8718204498291,53.61274337768555,54.29722213745117,0.2971663773059845,-0.06716698408126831,0.03375113010406494,0.02391636185348034,31.717117309570312,-2.2329390048980713,3.56733775138855,-1.0997055768966675,-1.4098176619181668e-11,-1.409818442543731e-11,0.0,0.0,0.0015639972407370806,0.0015247382689267397,0.0015571467811241746,0.0015321775572374463,0.0016986951231956482,0.0017099607503041625,0.0019417215371504426,0.0019366926280781627,66.39301300048828,224.32223510742188,174.36248779296875,228.2202911376953,-139.45155334472656,-194.03990173339844,7.209390163421631,52.80467224121094,0.2968292236328125,0.0013107610866427422,-0.004850283265113831,-0.0026700501330196857,0.0015994540881365538,-0.0016698383260518312,0.0028345396276563406,-0.004239384550601244,-0.024536874145269394,0.0010824667988345027,-0.0,2487.191162109375,2466.94091796875,2031.896728515625,2440.05908203125
1762838149.198148,9500912255140419907,2142,29.26567840576172,28.871749877929688,53.6120719909668,54.2960319519043,-0.22955237329006195,-0.020675359293818474,-0.016316771507263184,0.052303072065114975,-4.613399028778076,-2.0384786128997803,0.2279876470565796,7.899104118347168,-1.4098176619181668e-11,-1.409818442543731e-11,0.0,0.0,0.001558681484311819,0.0015206151874735951,0.001551849185489118,0.001528021297417581,0.0016672484343871474,0.0016784482868388295,0.0019621632527559996,0.001957164378836751,68.25167846679688,227.37791442871094,172.81527709960938,227.00448608398438,-139.29701232910156,-194.96632385253906,7.060636520385742,52.57035827636719,0.2968292236328125,0.001641875016503036,-0.0048668766394257545,-0.002695700153708458,0.0016771955415606499,-0.0012504162732511759,0.002822669455781579,-0.0014304624637588859,-0.0027639742475003004,-0.00019461380725260824,-0.0,2481.31884765625,2466.74169921875,2031.078369140625,2439.645263671875
1762838150.2358532,9500912255140419907,2163,29.27112579345703,28.872495651245117,53.61275100708008,54.295475006103516,-0.2165883630514145,0.09991227835416794,0.010505317710340023,-0.07957219332456589,-26.473400115966797,8.891521453857422,1.1265277862548828,-4.734098434448242,-1.4098176619181668e-11,-1.409818442543731e-11,0.0,0.0,0.0015454830136150122,0.0015392003115266562,0.0015379926189780235,0.0015474496176466346,0.0017062996048480272,0.0017175073735415936,0.0018241808284074068,0.001819166704080999,65.59571838378906,224.05674743652344,181.57278442382812,235.707763671875,-140.17530822753906,-193.41864013671875,5.433442115783691,53.46058654785156,0.2968254089355469,0.0015520125161856413,-0.00485274288803339,-0.0026499691884964705,0.0017024808330461383,-0.0012052899692207575,0.002812289632856846,0.006100781727582216,0.028029557317495346,-0.002361419377848506,-0.0,2480.869140625,2467.626220703125,2030.203857421875,2438.7890625
1762838151.239916,9500912255140419907,2183,29.27711296081543,28.868629455566406,53.61178207397461,54.297523498535156,0.4678219258785248,-0.22429971396923065,-0.04179775342345238,0.1459568589925766,41.8893928527832,-19.9153995513916,-3.9696686267852783,13.893839836120605,-1.4098176619181668e-11,-1.409818442543731e-11,0.0,0.0,0.0015805693110451102,0.0015081673627719283,0.0015742561081424356,0.001514636678621173,0.0016565235564485192,0.0016677837120369077,0.0020715538412332535,0.002066525397822261,69.04654693603516,228.07669067382812,165.98056030273438,219.97618103027344,-138.1181640625,-195.63880920410156,8.992846488952637,52.004638671875,0.2968292236328125,0.0014250049134716392,-0.004937926772981882,-0.002713948953896761,0.0015398620162159204,-0.0017279336461797357,0.0028219865635037422,-0.01304140966385603,-0.054836973547935486,0.004122959915548563,-0.0,2488.65966796875,2466.141357421875,2031.909912109375,2440.6181640625
1762838152.2878273,9500912255140419907,2204,29.27095603942871,28.873064041137695,53.61246871948242,54.2951774597168,-0.23446975648403168,0.10628252476453781,0.022798774763941765,-0.07420777529478073,-25.896724700927734,8.784233093261719,2.092122793197632,-4.948675155639648,-1.4098176619181668e-11,-1.409818442543731e-11,0.0,0.0,0.001544444472528994,0.001538353506475687,0.001536913332529366,0.0015465676551684737,0.0017071726033464074,0.0017183769959956408,0.00182394590228796,0.0018189323600381613,65.52340698242188,223.9712371826172,181.58592224121094,235.7039794921875,-140.2205352783203,-193.447509765625,5.3699951171875,53.402984619140625,0.29682159423828125,0.001547294552437961,-0.004857880994677544,-0.0026438897475600243,0.001704023452475667,-0.0012032885570079088,0.002828161232173443,0.006291658617556095,0.02822590433061123,-0.0027642257045954466,-0.0,2480.7470703125,2467.719970703125,2030.18017578125,2438.608642578125
1762838153.296984,9500912255140419907,2224,29.26715087890625,28.873271942138672,53.61254119873047,54.29605484008789,-0.2685561776161194,-0.012516974471509457,-0.026375053450465202,0.043138857930898666,-1.629442811012268,-5.8539204597473145,-3.5941598415374756,6.504356384277344,-1.4098176619181668e-11,-1.409818442543731e-11,0.0,0.0,0.0015593641437590122,0.001520733698271215,0.0015525369672104716,0.0015281285159289837,0.0016652963822707534,0.0016764989122748375,0.001962143462151289,0.0019571459852159023,68.36874389648438,227.47970581054688,172.78082275390625,227.0307159423828,-139.2372589111328,-194.9369659423828,7.115893363952637,52.58736801147461,0.2968177795410156,0.0016557063208892941,-0.004876979626715183,-0.0027025961317121983,0.001671976293437183,-0.0012569542741402984,0.0028189087752252817,-0.002020003506913781,-0.0033936856780201197,0.0010334186954423785,-0.0,2481.36474609375,2466.954345703125,2031.220947265625,2439.60302734375
1762838154.338364,9500912255140419907,2245,29.273134231567383,28.875185012817383,53.613399505615234,54.29607391357422,-0.15366820991039276,0.14863906800746918,0.0632554292678833,-0.07152556627988815,-24.508684158325195,19.94222068786621,6.450712203979492,-11.10434341430664,-1.4098176619181668e-11,-1.409818442543731e-11,0.0,0.0,0.0015487483469769359,0.0015419039409607649,0.0015412651700899005,0.001550244982354343,0.0017377831973135471,0.00174902833532542,0.001805983018130064,0.0018009607447311282,63.222442626953125,221.05723571777344,182.92367553710938,236.92481994628906,-139.8467254638672,-192.61550903320312,5.48167085647583,53.62813949584961,0.29681396484375,0.0015478294808417559,-0.004791933577507734,-0.0026625976897776127,0.001722766668535769,-0.00120105582755059,0.0027978988364338875,0.009948577731847763,0.03159583359956741,-0.002933931304141879,-0.0,2481.702880859375,2468.47265625,2030.96826171875,2439.52783203125
1762838155.3836567,9500912255140419907,2266,29.273387908935547,28.874731063842773,53.613197326660156,54.296730041503906,-0.17724929749965668,0.18104909360408783,0.05252658948302269,-0.08068978041410446,-36.51826858520508,17.548349380493164,4.4524664878845215,-14.685091972351074,-1.4098176619181668e-11,-1.409818442543731e-11,0.0,0.0,0.0015491463709622622,0.001543252496048808,0.0015416910173371434,0.0015516772400587797,0.0017439676448702812,0.0017552298959344625,0.0018079036381095648,0.0018028790364041924,62.6917724609375,220.4938507080078,182.8353271484375,236.58802795410156,-139.72940063476562,-192.4344940185547,5.529334545135498,53.746917724609375,0.2968101501464844,0.0015383443096652627,-0.004740261472761631,-0.0026692599058151245,0.0017391203437000513,-0.0011953834909945726,0.0027866049204021692,0.012256590649485588,0.032800376415252686,-0.001650298829190433,-0.0,2481.719482421875,2468.45263671875,2031.15771484375,2439.658203125
1762838156.39162,9500912255140419907,2286,29.271198272705078,28.87510108947754,53.613075256347656,54.29498291015625,-0.09007751196622849,0.11164694279432297,0.01609325408935547,-0.06884336471557617,-8.817760467529297,12.150404930114746,1.6227363348007202,-6.3031907081604,-1.4098176619181668e-11,-1.409818442543731e-11,0.0,0.0,0.0015410676132887602,0.0015389472246170044,0.0015334893250837922,0.0015472761588171124,0.0017169202910736203,0.001728130504488945,0.0018176560988649726,0.0018126382492482662,64.76185607910156,223.0943603515625,182.12588500976562,236.0057830810547,-140.34132385253906,-193.24794006347656,5.1126508712768555,53.44483947753906,0.2968101501464844,0.0018861604621633887,-0.0048573678359389305,-0.00270092929713428,0.0017561319982632995,-0.0008138589328154922,0.0027367824222892523,0.01071165967732668,0.0519319549202919,-0.006912331562489271,-0.0,2481.07080078125,2468.833984375,2030.59521484375,2438.42041015625
1762838157.433443,9500912255140419907,2307,29.274778366088867,28.871620178222656,53.611663818359375,54.29747009277344,0.41887161135673523,-0.26185065507888794,-0.06973743438720703,0.17859040200710297,29.511001586914062,-17.79645538330078,-3.1381843090057373,16.22736167907715,-1.4098176619181668e-11,-1.409818442543731e-11,0.0,0.0,0.0015792668564245105,0.0015082688769325614,0.0015729480655863881,0.0015147733502089977,0.001655985601246357,0.00166724540758878,0.0020734418649226427,0.0020684178452938795,69.1083755493164,228.05862426757812,165.8166961669922,219.9139404296875,-138.22866821289062,-195.5963897705078,8.950977325439453,52.0428581237793,0.2968101501464844,0.0014236069982871413,-0.004931039176881313,-0.002711277222260833,0.001549476059153676,-0.001727421535179019,0.0028458177112042904,-0.012215736322104931,-0.05469544604420662,0.005098375957459211,-0.0,2487.6142578125,2466.267822265625,2031.77587890625,2440.70556640625
1762838158.4351635,9500912255140419907,2327,29.275150299072266,28.872207641601562,53.61225891113281,54.29753494262695,0.24475157260894775,-0.18909572064876556,-0.036209817975759506,0.1341104507446289,23.087112426757812,-16.69004249572754,-3.620981454849243,11.815130233764648,-1.4098176619181668e-11,-1.409818442543731e-11,0.0,0.0,0.0015803070273250341,0.0015088642248883843,0.00157403654884547,0.0015154305147007108,0.0016577686183154583,0.001669025863520801,0.0020727193914353848,0.002067703055217862,69.028564453125,227.92926025390625,165.9051055908203,219.9522705078125,-138.22308349609375,-195.5562744140625,9.01286792755127,52.091041564941406,0.29680633544921875,0.0014184872852638364,-0.0049063051119446754,-0.002712944056838751,0.0015598336467519403,-0.0017244626069441438,0.0028448535595089197,-0.011494116857647896,-0.0543489046394825,0.006339009385555983,-0.0,2487.095703125,2466.412841796875,2032.2484130859375,2440.51123046875
1762838159.4377298,9500912255140419907,2347,29.271564483642578,28.87626838684082,53.61280059814453,54.295326232910156,-0.13455748558044434,0.07677822560071945,0.011622904799878597,-0.08717178553342819,-30.2083740234375,7.26207971572876,-0.17434357106685638,-7.939337253570557,-1.4098176619181668e-11,-1.409818442543731e-11,0.0,0.0,0.0015437203692272305,0.0015392607310786843,0.0015361321857199073,0.0015474834945052862,0.0017088190652430058,0.0017200349830091,0.0018258439376950264,0.0018208264373242855,65.32688903808594,223.91172790527344,181.46307373046875,235.4794158935547,-140.18394470214844,-193.4344024658203,5.354979515075684,53.49174880981445,0.2968025207519531,0.001905936747789383,-0.004882354289293289,-0.0027078171260654926,0.001748839858919382,-0.0008233587723225355,0.002747194841504097,0.009583315812051296,0.05139109492301941,-0.006771389860659838,-0.0,2480.92138671875,2468.50634765625,2030.2806396484375,2438.6083984375
1762838160.4409459,9500912255140419907,2367,29.27412223815918,28.875699996948242,53.61330032348633,54.29682159423828,0.32063570618629456,-0.01106411125510931,0.0024586913641542196,0.04917382821440697,31.623239517211914,0.4559754431247711,0.40233132243156433,-1.7836686372756958,-1.4098176619181668e-11,-1.409818442543731e-11,0.0,0.0,0.0015641450881958008,0.0015245965914800763,0.0015572883421555161,0.0015320159727707505,0.0016994087491184473,0.0017106803134083748,0.001941435388289392,0.0019364060135558248,66.3364028930664,224.40179443359375,174.31910705566406,228.21734619140625,-139.4545440673828,-194.1387939453125,7.245000839233398,52.82316970825195,0.2967987060546875,0.0013366437051445246,-0.004872818943113089,-0.002680067205801606,0.0015909604262560606,-0.0016821669414639473,0.002843585330992937,-0.004082894418388605,-0.025362582877278328,0.0039775618351995945,-0.0,2487.865234375,2468.242919921875,2031.95654296875,2440.028564453125
1762838161.4436057,9500912255140419907,2387,29.27125358581543,28.876379013061523,53.612483978271484,54.29530715942383,0.0,0.0,0.0,0.0,6.444008827209473,-12.69355297088623,-4.680454254150391,3.2454731464385986,-1.4098176619181668e-11,-1.409818442543731e-11,0.0,0.0,0.0015381979756057262,0.0015361258992925286,0.0015306476270779967,0.0015443539014086127,0.0016720086568966508,0.0016831712564453483,0.0018406708259135485,0.0018356717191636562,68.122802734375,227.07220458984375,180.3203125,234.7661590576172,-140.6774139404297,-194.11209106445312,5.160361289978027,53.30624771118164,0.2968025207519531,0.0019120719516649842,-0.0049454099498689175,-0.002695710863918066,0.0017294000135734677,-0.0008276891312561929,0.0027559997979551554,0.0033219505567103624,0.04682346433401108,-0.008019482716917992,-0.0,2481.012939453125,2466.434326171875,2029.533203125,2438.587646484375
1762838162.4462838,9500912255140419907,2407,29.284929275512695,28.86745834350586,53.61203384399414,54.29680252075195,-0.010281800292432308,-0.014416872523725033,-0.0006705521955154836,-0.0011175869731232524,0.1609325259923935,0.3822146952152252,-0.013411042280495167,0.06705521792173386,-1.4098176619181668e-11,-1.409818442543731e-11,0.0,0.0,0.0015691701555624604,0.0015270597068592906,0.0015623297076672316,0.001534480950795114,0.0016989337746053934,0.0017102002166211605,0.0019441464683040977,0.001939110574312508,66.06716918945312,225.6792755126953,174.02406311035156,228.12551879882812,-138.80747985839844,-194.2222442626953,7.568899631500244,52.999332427978516,0.2968025207519531,0.0016667769523337483,-0.004871895536780357,-0.0027219236362725496,0.0016496119787916541,-0.0012603775830939412,0.0027444269508123398,5.594221511273645e-05,4.200730109005235e-05,1.5143304153752979e-05,-0.0,2486.348388671875,2466.375,2030.83203125,2439.51416015625
1762838163.498284,9500912255140419907,2428,29.28565788269043,28.869699478149414,53.61199188232422,54.297264099121094,0.006258487235754728,-0.040568407624959946,-0.006705522071570158,-0.018104908987879753,-0.8247790932655334,0.03352761268615723,1.0728834867477417,1.7702577114105225,-1.4098176619181668e-11,-1.409818442543731e-11,0.0,0.0,0.0015648654662072659,0.0015276544727385044,0.0015579040627926588,0.00153518992010504,0.0017032454488798976,0.0017144903540611267,0.0019370808731764555,0.0019320573192089796,65.98607635498047,225.24789428710938,173.04122924804688,228.59507751464844,-138.0670928955078,-194.08006286621094,7.478280067443848,53.005706787109375,0.2967987060546875,0.0013102572411298752,-0.004887283779680729,-0.002654666779562831,0.0015947589417919517,-0.0016704967711120844,0.0028583742678165436,-0.003453937591984868,-0.02422628365457058,0.004994300659745932,-0.0,2486.6845703125,2466.53759765625,2030.870849609375,2439.77197265625
1762838164.5325983,9500912255140419907,2449,29.286558151245117,28.87188720703125,53.612064361572266,54.29779052734375,-0.037550922483205795,-0.03866850957274437,-0.01564621925354004,-0.0451505146920681,-4.237890243530273,-3.392993688583374,-1.3008712530136108,-2.655386447906494,-1.4098176619181668e-11,-1.409818442543731e-11,0.0,0.0,0.001565236016176641,0.0015294828917831182,0.0015582742635160685,0.001537104370072484,0.0017085409490391612,0.0017198005225509405,0.001937876339070499,0.001932850806042552,65.5309829711914,224.90689086914062,172.90628051757812,228.50143432617188,-137.9622344970703,-193.98876953125,7.521781921386719,53.15589904785156,0.2967948913574219,0.001317800721153617,-0.00486938888207078,-0.0026624230667948723,0.0016021026531234384,-0.0016734598902985454,0.0028652199544012547,-0.0023422876838594675,-0.023670848459005356,0.006849662866443396,-0.0,2486.47705078125,2466.97119140625,2030.9189453125,2439.81103515625
1762838165.5367348,9500912255140419907,2469,29.284860610961914,28.871715545654297,53.61211395263672,54.29829406738281,0.05174427852034569,0.03475695848464966,0.0248104315251112,0.0,1.9378958940505981,3.7886199951171875,2.3603436946868896,-6.034969329833984,-1.4098176619181668e-11,-1.409818442543731e-11,0.0,0.0,0.0015597156016156077,0.0015265005640685558,0.0015527252107858658,0.0015341343823820353,0.001707607414573431,0.0017188593046739697,0.0019336458062753081,0.0019286229507997632,65.59894561767578,224.9365997314453,173.23648071289062,228.82508850097656,-138.27024841308594,-194.12818908691406,7.15768575668335,52.944244384765625,0.29679107666015625,0.0016818648437038064,-0.004873520229011774,-0.0027270689606666565,0.001655853702686727,-0.001266826642677188,0.0027625150978565216,0.0008585163741372526,-5.2324026910355315e-05,0.00021288635616656393,-0.0,2486.7607421875,2467.59033203125,2031.474365234375,2440.52490234375
1762838166.5387857,9500912255140419907,2489,29.28615951538086,28.870922088623047,53.61232376098633,54.297393798828125,-0.02078711800277233,-0.04805624112486839,0.019446013495326042,-0.018328426405787468,-0.24139869213104248,0.2548098564147949,2.186000347137451,1.2069939374923706,-1.4098176619181668e-11,-1.409818442543731e-11,0.0,0.0,0.0015647313557565212,0.0015274342149496078,0.0015577758895233274,0.0015349735040217638,0.001702029723674059,0.001713273231871426,0.0019371864618733525,0.0019321631407365203,66.03018951416016,225.52157592773438,173.0648193359375,228.61837768554688,-138.0279541015625,-194.2341766357422,7.472480773925781,52.99720764160156,0.29679107666015625,0.0013095445465296507,-0.004878832958638668,-0.0026574390940368176,0.0015948571963235736,-0.0016699228435754776,0.0028449054807424545,-0.003594886278733611,-0.02429034933447838,0.004016495775431395,-0.0,2486.5673828125,2466.79296875,2031.306396484375,2439.909912109375
1762838167.5424628,9500912255140419907,2509,29.285436630249023,28.871660232543945,53.6120719909668,54.29821014404297,0.03173947334289551,-0.0248104315251112,0.009164213202893734,0.0006705521955154836,-0.3822145462036133,-3.962963104248047,-1.4886258840560913,0.25480982661247253,-1.4098176619181668e-11,-1.409818442543731e-11,0.0,0.0,0.0015633412403985858,0.0015271591255441308,0.0015563799533993006,0.0015347178559750319,0.0017023750115185976,0.0017136287642642856,0.0019393396796658635,0.001934316474944353,66.04956817626953,225.34515380859375,172.83485412597656,228.43572998046875,-138.16107177734375,-194.1356201171875,7.426095485687256,53.00142288208008,0.29679107666015625,0.001688771997578442,-0.004890912212431431,-0.0027278573252260685,0.0016479670302942395,-0.001270641339942813,0.002759750932455063,-0.0005062599084340036,-0.000243487287661992,-0.0009470851509831846,-0.0,2486.93408203125,2466.9423828125,2031.2626953125,2440.650390625
1762838168.5456653,9500912255140419907,2529,29.28509521484375,28.872268676757812,53.612178802490234,54.296573638916016,-0.05543231591582298,0.09130685776472092,0.00022351740335579962,-0.04000961408019066,-4.009902000427246,8.817760467529297,-0.5766748785972595,-1.3679263591766357,-1.4098176619181668e-11,-1.409818442543731e-11,0.0,0.0,0.001540963421575725,0.0015396479284390807,0.001533334027044475,0.0015480265719816089,0.0017115114023908973,0.0017227036878466606,0.001815878669731319,0.0018108673393726349,65.76988220214844,224.90147399902344,180.5997314453125,236.4501953125,-139.8363800048828,-193.5684356689453,5.360353469848633,53.51029968261719,0.2967872619628906,0.0015688168350607157,-0.004900649189949036,-0.002651885151863098,0.0016767093911767006,-0.0012137533631175756,0.0027821131516247988,0.005040470976382494,0.027400683611631393,-0.004163011442869902,-0.0,2486.62353515625,2467.556396484375,2029.990478515625,2439.84521484375
1762838169.5997097,9500912255140419907,2550,29.284757614135742,28.87249183654785,53.61210250854492,54.29902648925781,0.06951391696929932,0.09723006933927536,0.04783272370696068,0.05766749009490013,2.1189451217651367,8.120386123657227,4.519521713256836,-1.9446011781692505,-1.4098176619181668e-11,-1.409818442543731e-11,0.0,0.0,0.0015591081464663148,0.0015259245410561562,0.0015520962188020349,0.001533537870272994,0.0017084230203181505,0.001719671650789678,0.0019348975038155913,0.0019298774423077703,65.56300354003906,224.94558715820312,173.2535400390625,228.89857482910156,-138.33518981933594,-194.20883178710938,7.131263256072998,52.92988586425781,0.2967796325683594,0.0016864603385329247,-0.004863221198320389,-0.0027329539880156517,0.001655888045206666,-0.0012687798589468002,0.0027491245418787003,0.0009614182054065168,-9.234062599716708e-05,-0.0017940624384209514,-0.0,2487.098388671875,2468.322265625,2031.979248046875,2441.474609375
1762838170.6353357,9500912255140419907,2571,29.284242630004883,28.872018814086914,53.612239837646484,54.29658508300781,-0.060908492654561996,0.08113681524991989,-0.0073760743252933025,-0.0248104315251112,-2.6285643577575684,6.89998197555542,-1.582503080368042,0.10728835314512253,-1.4098176619181668e-11,-1.409818442543731e-11,0.0,0.0,0.0015409053303301334,0.0015394199872389436,0.0015332833863794804,0.0015477940905839205,0.0017109150066971779,0.0017221065936610103,0.0018158280290663242,0.001810816815122962,65.80487060546875,224.94142150878906,180.59286499023438,236.53919982910156,-139.83270263671875,-193.5812530517578,5.362507343292236,53.50237274169922,0.296783447265625,0.0015663702506572008,-0.004896544851362705,-0.0026512513868510723,0.0016784050967544317,-0.0012125590583309531,0.0027813201304525137,0.00499596307054162,0.027416212484240532,-0.004292232450097799,-0.0,2486.399169921875,2467.412109375,2029.9580078125,2439.98193359375
1762838171.636524,9500912255140419907,2591,29.286457061767578,28.87237548828125,53.61213684082031,54.297584533691406,-0.02000480704009533,-0.04302709922194481,-0.027045605704188347,-0.05029141530394554,-1.5489754676818848,-4.412233352661133,-2.77608585357666,-3.634392738342285,-1.4098176619181668e-11,-1.409818442543731e-11,0.0,0.0,0.0015651435824111104,0.0015292681055143476,0.0015581724001094699,0.001536868279799819,0.001707954448647797,0.0017192146042361856,0.0019375492120161653,0.0019325237954035401,65.5570068359375,224.8174285888672,172.85382080078125,228.4916229248047,-137.95648193359375,-193.9055633544922,7.533069133758545,53.15131759643555,0.2967796325683594,0.001683705486357212,-0.004893575794994831,-0.0027210034895688295,0.0016531562432646751,-0.0012684207176789641,0.0027836791705340147,0.0005853990442119539,0.0005098641267977655,0.0022336652036756277,-0.0,2486.5947265625,2466.91796875,2030.8056640625,2439.72021484375
1762838172.639772,9500912255140419907,2611,29.283130645751953,28.870790481567383,53.61137771606445,54.29757308959961,-0.006146728526800871,-0.06426125764846802,-0.05029141530394554,0.057891007512807846,2.849846601486206,-9.280442237854004,-2.7090306282043457,4.962086200714111,-1.4098176619181668e-11,-1.409818442543731e-11,0.0,0.0,0.0015544482739642262,0.0015226566465571523,0.0015474078245460987,0.0015301998937502503,0.001678701606579125,0.001689900062046945,0.001952715334482491,0.0019477076129987836,67.757080078125,227.62266540527344,171.85125732421875,227.66690063476562,-138.69082641601562,-194.8924560546875,7.0064849853515625,52.735469818115234,0.2967796325683594,0.0016726714093238115,-0.004924959037452936,-0.002705218968912959,0.001642838935367763,-0.0012652046279981732,0.002786471974104643,-0.0021583468187600374,-0.003131450852379203,0.00013940500502940267,-0.0,2485.527099609375,2467.0625,2030.671875,2440.296630859375
