timestamp,session_uid,frame,suspension_pos_rl,suspension_pos_rr,suspension_pos_fl,suspension_pos_fr,suspension_vel_rl,suspension_vel_rr,suspension_vel_fl,suspension_vel_fr,suspension_acc_rl,suspension_acc_rr,suspension_acc_fl,suspension_acc_fr,wheel_speed_rl,wheel_speed_rr,wheel_speed_fl,wheel_speed_fr,wheel_slip_ratio_rl,wheel_slip_ratio_rr,wheel_slip_ratio_fl,wheel_slip_ratio_fr,wheel_slip_angle_rl,wheel_slip_angle_rr,wheel_slip_angle_fl,wheel_slip_angle_fr,wheel_lat_force_rl,wheel_lat_force_rr,wheel_lat_force_fl,wheel_lat_force_fr,wheel_long_force_rl,wheel_long_force_rr,wheel_long_force_fl,wheel_long_force_fr,height_of_cog,local_velocity_x,local_velocity_y,local_velocity_z,angular_velocity_x,angular_velocity_y,angular_velocity_z,angular_acceleration_x,angular_acceleration_y,angular_acceleration_z,front_wheels_angle,wheel_vert_force_rl,wheel_vert_force_rr,wheel_vert_force_fl,wheel_vert_force_fr
1765176647.387584,14012902332939303710,0,31.99234962463379,31.4254093170166,53.77845764160156,53.700286865234375,1.8579776287078857,-0.7288287281990051,0.03491395339369774,-1.3060991764068604,98.93881225585938,-38.81071853637695,1.8591961860656738,-69.55083465576172,0.0,0.0,0.0,0.0,-5.3659714467357844e-05,-0.00013285057502798736,-4.9591671995585784e-05,-0.0001317203714279458,7.184810237959027e-05,7.145733252400532e-05,0.00016171907191164792,0.00016175972996279597,-146.7233428955078,43.40485382080078,-178.7299041748047,59.66520309448242,-148.43222045898438,-129.15504455566406,75.8664779663086,64.8825454711914,0.3030214309692383,0.0008102224674075842,0.0030243222136050463,0.0005940487026236951,0.0071801356971263885,0.0006221975199878216,0.009211734868586063,0.38234803080558777,0.03313251957297325,0.4905323386192322,-0.0,2464.66845703125,2325.6826171875,2126.60546875,2061.7060546875
1765176648.432244,14012902332939303710,21,29.059005737304688,28.611473083496094,53.778282165527344,53.78256607055664,-0.050513092428445816,0.08994314074516296,-1.1888693571090698,-0.21590617299079895,-96.85935974121094,98.19959259033203,-96.78700256347656,106.67356872558594,0.0,0.0,0.0,0.0,-0.00016193499322980642,-0.00021859293337911367,-0.00015892750525381416,-0.0002162747987313196,0.00021093392570037395,0.00020943024719599634,0.000364639243343845,0.0003653396270237863,-132.64344787597656,15.655843734741211,-181.14852905273438,22.437442779541016,-142.56712341308594,-129.39695739746094,80.39442443847656,68.53661346435547,0.30559539794921875,0.002268274314701557,-0.003179971594363451,-9.447587945032865e-05,0.001937007182277739,0.0005238036392256618,-0.0007362107862718403,0.1234433501958847,-0.039867009967565536,-0.06569011509418488,-0.0,2484.27685546875,2391.7919921875,2123.13525390625,2115.23828125
1765176649.4380538,14012902332939303710,40,29.125633239746094,28.632415771484375,53.827537536621094,53.80268859863281,0.6499114632606506,-0.14997608959674835,0.6389497518539429,0.1610736846923828,-4.125123977661133,2.483506441116333,15.356971740722656,22.18787956237793,0.0,0.0,0.0,0.0,-0.00011872889444930479,-0.000184331409400329,-0.00012024685565847903,-0.00018614056170918047,0.0002772648585960269,0.0002757903130259365,0.0003039768198505044,0.00030455421074293554,-140.0508270263672,7.670790672302246,-182.404541015625,27.113510131835938,-137.9898681640625,-127.27826690673828,87.8058090209961,73.13163757324219,0.30549073219299316,0.0012583095813170075,-0.0002446302096359432,0.00018469998030923307,-0.0038567984011024237,0.00015723698015790433,-0.005832895170897245,-0.14922679960727692,-0.00765386363491416,-0.12764829397201538,-0.0,2514.00048828125,2389.4482421875,2180.750244140625,2139.187255859375
1765176650.4405713,14012902332939303710,58,29.102270126342773,28.586463928222656,53.83219528198242,53.778533935546875,1.0038853883743286,-1.257602572441101,0.27546438574790955,-1.8953005075454712,3.720623254776001,-59.5839729309082,-21.849489212036133,-128.8899688720703,0.0,0.0,0.0,0.0,-0.0001558627700433135,-0.00011966453166678548,-0.00015645023086108267,-0.00011608868953771889,0.0003076031862292439,0.00030640786280855536,5.0404156354488805e-05,5.08003868162632e-05,-143.49301147460938,4.793155670166016,-163.76878356933594,43.76003646850586,-140.33892822265625,-120.8931655883789,85.28182220458984,79.26148986816406,0.30555176734924316,0.0014494829811155796,-0.002213617553934455,-0.00044795931898988783,0.0023841657675802708,0.0002545370371080935,0.0012978051090613008,0.29795363545417786,0.015114368870854378,0.3760305941104889,-0.0,2505.658203125,2368.76123046875,2163.505126953125,2109.396240234375
1765176651.4923997,14012902332939303710,80,29.05567741394043,28.62493133544922,53.769935607910156,53.7790412902832,-0.6374830007553101,-0.9703162908554077,0.47344085574150085,1.0643644332885742,17.057296752929688,-236.40829467773438,143.6094970703125,94.08951568603516,0.0,0.0,0.0,0.0,-8.721360063645989e-05,-4.0295737562701106e-05,-9.127087105298415e-05,-4.0244951378554106e-05,0.0002304603549418971,0.00022976061154622585,0.00027064408641308546,0.0002709549153223634,-137.51148986816406,11.161513328552246,-178.90725708007812,25.442808151245117,-133.6299591064453,-113.39214324951172,91.56398010253906,87.86090087890625,0.305591344833374,0.0017440119991078973,-0.004918374121189117,-9.439725545234978e-06,0.000819492619484663,0.0011830839794129133,-0.0011461609974503517,-0.04067529737949371,0.037266992032527924,0.06465371698141098,-0.0,2484.08837890625,2374.237548828125,2139.6142578125,2124.946533203125
1765176652.5431254,14012902332939303710,103,29.09467124938965,28.599864959716797,53.82484817504883,53.798194885253906,0.8802392482757568,-0.4675302803516388,0.9369840621948242,0.17525705695152283,87.53118896484375,-30.614765167236328,47.76123046875,-60.134063720703125,0.0,0.0,0.0,0.0,-0.00012392608914524317,-0.00019507293472997844,-0.0001248009066330269,-0.00019679823890328407,0.00021667187684215605,0.00021500269940588623,0.00037778273690491915,0.00037845270708203316,-140.34756469726562,10.764557838439941,-189.57203674316406,17.010770797729492,-135.7355194091797,-123.31417083740234,90.87733459472656,75.67761993408203,0.30552101135253906,0.0011158587876707315,-0.00020269470405764878,0.0001906918769236654,-0.003372611477971077,6.383203435689211e-05,-0.0048752035945653915,-0.18308977782726288,-0.08415812999010086,-0.0760449543595314,-0.0,2506.5478515625,2382.141845703125,2176.14306640625,2133.730224609375
1765176653.6600676,14012902332939303710,120,33.169281005859375,32.821685791015625,53.2305908203125,53.289031982421875,10.499954223632812,7.923046112060547,1.1605520248413086,1.298536777496338,-74.9817886352539,-121.88694763183594,85.9867172241211,82.90380859375,1.902809500694275,1.8785818815231323,1.0217195749282837,1.1284711360931396,0.17038534581661224,0.12380554527044296,-0.001815430587157607,-0.011349127627909184,0.001824695966206491,0.00034474211861379445,-0.00020501468679867685,0.00033805592101998627,-183.38864135742188,82.65890502929688,-40.53483963012695,24.279125213623047,5338.73779296875,5195.6669921875,218.6256561279297,-1319.8714599609375,0.30352020263671875,0.003805090207606554,-0.013253863900899887,1.0682085752487183,-0.005168433301150799,-0.0027512195520102978,0.0037996433675289154,0.17232435941696167,-0.028305837884545326,-0.0879710242152214,-0.0,2902.98828125,2812.508056640625,1731.8402099609375,1752.9034423828125
1765176655.8089185,14012902332939303710,121,33.09173583984375,32.770751953125,53.39301300048828,53.4423942565918,-11.653403282165527,-11.234432220458984,2.2277235984802246,2.054373264312744,-295.37811279296875,-255.4330291748047,14.22895336151123,10.07781982421875,1.7469297647476196,1.7601691484451294,1.6483407020568848,1.6567996740341187,0.2586350739002228,0.2693736255168915,0.0001667840697336942,0.0008282936178147793,0.005428825970739126,0.0029478021897375584,-3.696264684549533e-05,0.000845996371936053,-210.6212921142578,1.4483569860458374,-89.76675415039062,2.9449305534362793,-5009.1484375,-4862.900390625,-22.60066032409668,112.76676177978516,0.3032958507537842,0.012223994359374046,0.024254828691482544,1.6146137714385986,0.03610309958457947,-0.005592432804405689,-0.021582424640655518,0.550287127494812,-0.03788284212350845,-0.3384275734424591,-0.0,2909.926025390625,2835.76953125,1866.02587890625,1885.005615234375
1765176656.8301756,14012902332939303710,142,28.507797241210938,28.209672927856445,53.720001220703125,53.714168548583984,-0.4548579156398773,-3.6426632404327393,2.2673604488372803,-0.07688998430967331,116.07257843017578,7.78510046005249,132.7425079345703,11.479853630065918,1.4329712390899658,1.4319398403167725,1.4327449798583984,1.4308561086654663,7.518288475694135e-05,9.689043508842587e-06,-4.411384725244716e-05,2.544584049246623e-06,0.0012630344135686755,-0.0005777953192591667,3.5930755984736606e-05,0.0008547190227545798,-270.01190185546875,158.22706604003906,-99.58231353759766,-0.06616875529289246,-9.535438537597656,-1.1967207193374634,-6.178783416748047,-0.35425519943237305,0.30451107025146484,0.0018570306710898876,0.006188882514834404,1.42854642868042,0.0003265618870500475,0.00017058037337847054,-0.0026635911781340837,0.0137941250577569,0.009087919257581234,0.10193920880556107,-0.0,2418.133544921875,2320.732177734375,2096.578369140625,2077.630615234375
1765176657.8676631,14012902332939303710,168,28.55963897705078,28.303062438964844,53.75906753540039,53.744693756103516,0.002793967491015792,0.06023794040083885,0.011846422217786312,0.012516974471509457,0.25480982661247253,-1.8440183401107788,-0.41574230790138245,2.212822198867798,1.1273623704910278,1.127545714378357,1.1283563375473022,1.130585789680481,-3.590773121686652e-05,-3.466331327217631e-05,-4.019389598397538e-05,-0.00011511107004480436,0.0011029706802219152,-0.00036045999149791896,0.00013621019024867564,0.000790343270637095,-238.2271728515625,118.90470886230469,-101.53597259521484,-1.8249728679656982,-4.56619119644165,-4.321218013763428,-5.639318466186523,-16.048015594482422,0.3047447204589844,0.0020759087055921555,0.008341789245605469,1.12404465675354,0.00022373544925358146,0.00010057573672384024,-0.00015549769159406424,0.002376261632889509,-0.002062635961920023,0.0010111464653164148,-0.0,2432.654296875,2361.1083984375,2109.76171875,2091.592041015625
1765176658.8703074,14012902332939303710,193,28.555561065673828,28.373394012451172,53.77085876464844,53.72989273071289,0.030957162380218506,0.046603377908468246,-0.005364417564123869,-0.009387730620801449,0.3620983064174652,2.273171901702881,-4.492700099945068,0.5632638335227966,0.8311913013458252,0.8312095403671265,0.8312458992004395,0.8313067555427551,-7.377659130725078e-06,-1.7246627976419404e-05,2.962279540952295e-05,3.9976723201107234e-05,0.000919923244509846,-0.00016688914911355823,0.00021940580336377025,0.0007043909863568842,-199.5778350830078,80.16834259033203,-98.68987274169922,-4.7079973220825195,-0.9355005621910095,-2.152437448501587,-4.162718772888184,5.55463981628418,0.30559635162353516,0.0020748223178088665,0.005606307648122311,0.8271679282188416,0.00035438998020254076,9.835358650889248e-05,-0.0002474504290148616,0.00046888014185242355,-0.0016454539727419615,0.003587740706279874,1.0894962542806752e-05,2425.102294921875,2367.968994140625,2116.24609375,2083.682373046875
1765176659.8796935,14012902332939303710,218,28.568647384643555,28.436140060424805,53.77989959716797,53.7216796875,0.028386710211634636,0.06582587957382202,0.04135071858763695,-0.03151595592498779,-0.1542271226644516,1.5690923929214478,2.1591780185699463,-2.7358529567718506,0.5364148616790771,0.537242591381073,0.5386022925376892,0.5363026857376099,2.7788815714302473e-05,1.4795560673519503e-05,-0.00010609422315610573,-6.362346903188154e-05,0.000732692948076874,2.608797512948513e-05,0.0003040994633920491,0.0006190776475705206,-157.09555053710938,37.9441032409668,-91.04192352294922,-12.330729484558105,-3.515897512435913,-1.847411870956421,-14.910720825195312,-8.818082809448242,0.3054482936859131,0.002071192255243659,0.003379903733730316,0.5323551893234253,0.0005137299885973334,9.700631198938936e-05,-0.0003423683810979128,-0.0008186464547179639,0.0015842943685129285,-0.0031513143330812454,-0.0,2420.275146484375,2372.9140625,2120.5693359375,2078.73876953125
1765176660.9204452,14012902332939303710,244,28.729686737060547,28.328784942626953,53.75123977661133,53.55606460571289,0.65781170129776,0.16238538920879364,0.007599591743201017,-0.3475695550441742,-3.2588837146759033,1.736729383468628,0.4425644278526306,2.802908182144165,0.0,0.0,0.0,0.0,0.0004162995028309524,0.0005406244308687747,0.00041717980639077723,0.000542138353921473,-0.0004118169308640063,-0.0004083929816260934,-0.0008602942689321935,-0.0008618024876341224,-498.8098449707031,388.9082946777344,-74.00920104980469,-156.55667114257812,-208.88221740722656,-115.36570739746094,-28.272117614746094,65.19213104248047,0.3054368495941162,-0.0014243674231693149,0.0006485017365776002,-0.0005069704493507743,-0.004725803155452013,0.000684823957271874,-0.0015769159654155374,-0.004226434510201216,-0.008974244818091393,-0.004540525376796722,-0.0,2484.62744140625,2399.690673828125,2084.778564453125,1950.773681640625
1765176661.9816458,14012902332939303710,270,33.08225631713867,32.90599822998047,53.401885986328125,53.27156066894531,0.8256732821464539,0.6747990250587463,0.13478100299835205,-0.03531574830412865,0.9655951857566833,8.891518592834473,1.7166141271591187,1.2338160276412964,28.68558120727539,28.76772117614746,7.713497638702393,7.636040210723877,2.6740686893463135,2.7108428478240967,-0.0046083275228738785,-0.00492343632504344,0.024994684383273125,0.0177864208817482,-0.00037498565507121384,0.00233089248649776,-240.85731506347656,62.73837661743164,-73.8419418334961,-131.4324951171875,4123.06787109375,4066.787353515625,577.5697021484375,591.6476440429688,0.30272865295410156,0.09650522470474243,0.03711068630218506,7.790607452392578,-0.004294134676456451,-0.04561649262905121,0.0011547136818990111,-0.007292562630027533,-0.07827243953943253,0.0035536123905330896,-0.0,2813.3837890625,2754.6767578125,1835.47412109375,1743.75390625
1765176663.0301287,14012902332939303710,299,35.05474090576172,34.244590759277344,53.67288589477539,53.157440185546875,0.45977529883384705,-2.8961150646209717,1.6113369464874268,-0.6770341992378235,86.3000717163086,46.06692886352539,42.21796417236328,20.425024032592773,28.61359977722168,28.96253776550293,17.62697410583496,17.325162887573242,0.6425780057907104,0.6883759498596191,-0.0010801333701238036,-0.0011356768663972616,0.0462600402534008,0.03900113329291344,0.003266359679400921,0.006157057359814644,-557.2899780273438,-109.73348236083984,-512.4683837890625,-504.4522399902344,5083.64111328125,4724.08740234375,-152.09219360351562,-135.97903442382812,0.30081653594970703,0.4445555806159973,0.06916029751300812,17.495786666870117,-0.01104617677628994,-0.18614907562732697,-0.0011548312613740563,-0.057040076702833176,-0.659400463104248,-0.00739413732662797,-0.0,3136.5517578125,2895.32861328125,2018.234375,1634.199462890625
1765176664.0773847,14012902332939303710,325,36.63570022583008,36.38199234008789,54.04142761230469,53.953575134277344,-17.088577270507812,-8.079931259155273,2.9801576137542725,5.981101989746094,-339.78228759765625,276.61614990234375,-217.13819885253906,125.6078109741211,28.874147415161133,28.881132125854492,28.256141662597656,28.27728271484375,0.027404487133026123,0.026850052177906036,-0.0007887117099016905,-0.000715435657184571,0.003159506479278207,-0.005217181518673897,-0.0007910117856226861,0.002195473527535796,-692.6390991210938,1023.8580932617188,-83.0579833984375,-85.81671905517578,3760.58349609375,3753.19677734375,-123.68386840820312,-110.97014617919922,0.2979562282562256,-0.005938296671956778,0.12032900750637054,28.283754348754883,0.007098593283444643,0.011870858259499073,0.0072350469417870045,0.014974967576563358,-0.693239152431488,0.29973775148391724,-0.0,3421.5244140625,3490.88818359375,2308.262451171875,2251.444580078125
1765176665.1188962,14012902332939303710,347,34.394500732421875,33.20240783691406,53.88482666015625,53.465187072753906,82.76022338867188,74.11188507080078,-8.383020401000977,-22.796316146850586,-862.5713500976562,1496.6387939453125,-272.23077392578125,389.41644287109375,28.76563262939453,28.792654037475586,27.64865493774414,27.67832374572754,0.04813631623983383,0.047219742089509964,-0.0011827292619273067,-0.0011865019332617521,0.002102195518091321,-0.005379319190979004,-0.0004879431508015841,0.0025018462911248207,-461.71044921875,903.7857055664062,-82.61123657226562,-149.29698181152344,5154.17626953125,5092.87158203125,-164.48927307128906,-148.91799926757812,0.30013561248779297,-0.012597350403666496,0.08039034157991409,27.696735382080078,-0.036281101405620575,0.019207507371902466,0.01688481494784355,1.1967700719833374,-0.958865761756897,1.725424885749817,-0.0,3306.385498046875,3320.046875,1980.1199951171875,1673.3603515625
1765176666.1201878,14012902332939303710,370,31.60210609436035,31.51692771911621,54.41039276123047,54.34455871582031,4.53326416015625,4.552752494812012,-0.45089036226272583,-0.44690409302711487,337.6990051269531,339.2918701171875,-99.88248443603516,-99.51388549804688,29.327646255493164,29.328981399536133,29.286865234375,29.28788948059082,0.0035002550575882196,0.003529868321493268,-0.00012054109538439661,-0.00012167707609478384,0.003939807880669832,-0.00331486901268363,-0.001190881826914847,0.001953468192368746,-859.8601684570312,748.2979125976562,-58.67930221557617,-37.48881530761719,541.7304077148438,542.7261962890625,-20.174570083618164,-20.13475227355957,0.30034923553466797,0.010084720328450203,0.17404374480247498,29.2887020111084,-0.0024338269140571356,0.0007189677562564611,0.001321909367106855,-0.18649280071258545,0.005896973889321089,0.10103289037942886,-0.0,3073.74755859375,3037.5185546875,2551.300537109375,2505.7900390625
1765176667.1316762,14012902332939303710,395,31.532886505126953,31.444355010986328,54.41373825073242,54.34562301635742,-1.5374927520751953,-1.6536273956298828,1.2869431972503662,1.2050038576126099,27.613285064697266,32.004364013671875,121.22027587890625,128.3541259765625,29.508893966674805,29.51120948791504,29.271684646606445,29.272642135620117,0.0052648684941232204,0.005281390156596899,-0.00010181835386902094,-0.00010004450450651348,0.003943044226616621,-0.0033191696275025606,-0.0011867854045704007,0.0019483258947730064,-857.7139282226562,746.476806640625,-62.8275032043457,-33.47380828857422,807.6290893554688,804.6939086914062,-17.185224533081055,-16.69434928894043,0.3003826141357422,0.010063440538942814,0.17547832429409027,29.278060913085938,0.001108050113543868,0.0006103574414737523,-0.0006028421339578927,-0.01962246187031269,-0.0003138758765999228,0.021814700216054916,-0.0,3087.472412109375,3050.4404296875,2574.787841796875,2528.041748046875
1765176668.1830258,14012902332939303710,420,31.43292999267578,31.342920303344727,54.410587310791016,54.34578323364258,0.6295163631439209,0.5574852228164673,1.0205429792404175,0.9698991179466248,81.90937042236328,81.79882049560547,141.62574768066406,142.06529235839844,29.527606964111328,29.53008460998535,29.278236389160156,29.279191970825195,0.005621362943202257,0.005641636438667774,-0.00011406069825170562,-0.00011247499060118571,0.003927606623619795,-0.003303025383502245,-0.001185952452942729,0.0019497472094371915,-853.8466796875,742.5643920898438,-62.408016204833984,-33.96076583862305,860.5037231445312,857.6488037109375,-19.217958450317383,-18.742490768432617,0.3006703853607178,0.010080451145768166,0.17358428239822388,29.285329818725586,-0.0025290001649409533,0.0007194208446890116,0.0013176435604691505,-0.026649968698620796,-0.00013834038691129535,0.016882287338376045,-0.0,3085.01611328125,3047.645263671875,2569.724609375,2524.6357421875
1765176669.2221036,14012902332939303710,446,31.695022583007812,31.43405532836914,54.47268295288086,54.25486755371094,1.0126265287399292,-8.002131462097168,1.223708152770996,-2.5864555835723877,-676.0808715820312,-84.37340545654297,-192.1416015625,186.76690673828125,29.23373794555664,29.233219146728516,29.28489112854004,29.28487205505371,-0.0010032517602667212,-0.0010143178515136242,2.021103682636749e-05,1.4834346984571312e-05,0.004153719171881676,-0.003134113969281316,-0.0010900242486968637,0.002051325747743249,-898.5806884765625,715.2249145507812,-76.28594970703125,-50.56377410888672,-156.5652618408203,-155.72210693359375,3.4272825717926025,2.437936544418335,0.30034852027893066,0.014172819443047047,0.17492960393428802,29.283231735229492,0.0026135225780308247,-3.980071051046252e-05,-0.0015110743697732687,0.5291010141372681,0.0380672924220562,0.39584022760391235,-0.0,3143.077880859375,3037.218505859375,2589.36376953125,2449.290283203125
1765176670.228364,14012902332939303710,470,31.039987564086914,30.960067749023438,54.563846588134766,54.502750396728516,-3.3179333209991455,-3.7672195434570312,3.698747158050537,4.264210224151611,-403.7000732421875,-430.5634460449219,31.477537155151367,61.3204460144043,29.55811309814453,29.560911178588867,29.271724700927734,29.272512435913086,0.006453267298638821,0.00647800462320447,-0.00012626209354493767,-0.00012518418952822685,0.0038934717886149883,-0.003266174579039216,-0.0012038308195769787,0.0019664252176880836,-833.35205078125,721.6874389648438,-72.8089599609375,-23.586254119873047,958.7611694335938,955.0457153320312,-21.87415885925293,-21.494964599609375,0.3009328842163086,0.010110980831086636,0.20467227697372437,29.27924156188965,-0.0019395370036363602,0.0006830585189163685,0.000822807545773685,-0.6251335740089417,0.017567714676260948,0.3013947606086731,-0.0,2952.76953125,2914.645263671875,2703.412109375,2662.11474609375
1765176671.277226,14012902332939303710,495,31.64980125427246,31.564537048339844,54.423404693603516,54.35753631591797,3.0021650791168213,3.017641305923462,-0.028860941529273987,-0.03659902140498161,281.5585632324219,283.353759765625,-120.59972381591797,-121.04601287841797,29.318017959594727,29.319255828857422,29.28864288330078,29.2896728515625,0.0030572889372706413,0.0030833478085696697,-0.00010305311297997832,-0.00010371670941822231,0.003949397709220648,-0.0033213431015610695,-0.0011907279258593917,0.001955625833943486,-857.8742065429688,746.2513427734375,-59.95026779174805,-36.36762619018555,471.52984619140625,472.4212951660156,-17.267784118652344,-17.182756423950195,0.30030179023742676,0.010124425403773785,0.17468641698360443,29.29012680053711,-0.0020048520527780056,0.000702638819348067,0.001013539731502533,-0.1990097314119339,0.006132757291197777,0.10147294402122498,-0.0,3075.7578125,3039.56201171875,2565.85205078125,2520.273193359375
1765176672.327477,14012902332939303710,521,31.579792022705078,31.49380874633789,54.38896560668945,54.322322845458984,-2.012925863265991,-2.06207275390625,-0.9724380970001221,-1.006672978401184,-386.40008544921875,-386.3505859375,-11.939291954040527,-8.5486478805542,29.240114212036133,29.240873336791992,29.280195236206055,29.281269073486328,-0.0005680156755261123,-0.0005758354091085494,2.852233956218697e-05,3.0283776141004637e-05,0.003950866404920816,-0.003324212972074747,-0.0011871554888784885,0.0019531387370079756,-858.9915161132812,747.6375732421875,-60.084312438964844,-36.3595085144043,-87.99923706054688,-88.6275634765625,4.77553653717041,5.012604713439941,0.3003520965576172,0.010118285194039345,0.17397116124629974,29.28040313720703,0.0016380676534026861,0.0006055411067791283,-0.0008471967885270715,0.27616122364997864,-0.0074920691549777985,-0.1349497139453888,-0.0,3111.89697265625,3075.174560546875,2534.42431640625,2488.34326171875
1765176673.3320057,14012902332939303710,546,33.895790100097656,29.951719284057617,55.450557708740234,53.377254486083984,15.332712173461914,-7.050162315368652,12.802742004394531,-0.8723454475402832,457.7193908691406,283.7069091796875,526.811279296875,363.69818115234375,29.701269149780273,29.40565299987793,29.470598220825195,29.046964645385742,0.005129005294293165,0.008498955518007278,-0.0002428394218441099,6.819816189818084e-05,0.013537362217903137,0.006338742561638355,0.020658282563090324,0.018814725801348686,-2618.031982421875,-876.4577026367188,-2929.1943359375,-1686.8636474609375,890.1380004882812,1102.4219970703125,-47.606056213378906,-8.60771656036377,0.2999532222747803,-0.1554768979549408,0.15927574038505554,29.260957717895508,-0.02617896907031536,-0.2681333124637604,-0.022304430603981018,-0.10217514634132385,-1.8648685216903687,-0.15509063005447388,0.044743720442056656,3954.80322265625,2460.78173828125,3457.615966796875,1856.5614013671875
1765176674.3803391,14012902332939303710,570,30.24993324279785,30.751697540283203,54.29325866699219,54.556522369384766,-1.0869652032852173,-0.2643093466758728,0.7434188723564148,-0.6307660937309265,871.4295043945312,-836.2656860351562,590.7698364257812,-567.8638305664062,28.47113037109375,28.459501266479492,28.547565460205078,28.534482955932617,-0.0025741395074874163,-0.00257937703281641,0.00010212272172793746,4.226345117785968e-05,0.004707705695182085,-0.0023258565925061703,-0.0014229250373318791,0.0017348680412396789,-962.1068115234375,555.568603515625,-32.88125228881836,-1.931901216506958,-389.14996337890625,-384.6271667480469,17.02407455444336,7.168058395385742,0.3010094165802002,0.019696101546287537,0.18130278587341309,28.539073944091797,-0.007596815936267376,-0.007286209613084793,-0.013266627676784992,-0.5891996026039124,0.5424867868423462,-1.3106727600097656,-0.0,2977.667724609375,2941.97705078125,2513.47998046875,2636.46240234375
1765176675.4301841,14012902332939303710,595,33.33722686767578,33.27415084838867,54.610233306884766,54.56059265136719,10.124850273132324,11.282621383666992,24.321517944335938,25.41878318786621,-1584.63720703125,-1543.178955078125,655.6611938476562,703.5576171875,26.728511810302734,26.724477767944336,19.644250869750977,19.504066467285156,-0.03299785405397415,-0.03332647681236267,-0.27058663964271545,-0.2752751410007477,0.004044690169394016,-0.0035800752229988575,-0.0008769575506448746,0.0021915691904723644,-646.3225708007812,581.0999755859375,-251.0111541748047,223.48826599121094,-3204.164306640625,-3201.520263671875,-5294.7197265625,-5266.2119140625,0.2996957302093506,0.012146481312811375,0.15119744837284088,27.68048095703125,0.01909961923956871,0.0030384748242795467,-0.006917356979101896,0.30986666679382324,0.044535648077726364,-0.13263769447803497,-0.0,2289.19482421875,2269.62890625,3174.5791015625,3155.36181640625
1765176676.4751818,14012902332939303710,620,33.06013488769531,32.95025634765625,55.204795837402344,55.18644714355469,-0.5695223212242126,1.5699862241744995,-3.245025634765625,-4.000291347503662,-44.55148696899414,0.0,-655.2501831054688,-645.7015380859375,22.48693084716797,22.478713989257812,10.31551742553711,10.340827941894531,-0.045279260724782944,-0.04609609395265579,-0.5328877568244934,-0.5318060517311096,0.003992933314293623,-0.0036047198809683323,-0.0006139246397651732,0.00282632140442729,-551.6073608398438,502.01776123046875,-250.1533203125,228.19300842285156,-3575.759765625,-3574.678466796875,-5075.3662109375,-5064.3662109375,0.2995884418487549,0.014619559980928898,0.1803804636001587,23.578214645385742,-0.006283230148255825,0.006357699166983366,0.00334060937166214,-0.30005356669425964,0.04047210142016411,0.15917037427425385,-0.0,2194.548828125,2173.6064453125,3367.5078125,3354.138671875
1765176677.525813,14012902332939303710,644,27.830612182617188,28.402812957763672,53.49165344238281,54.25375747680664,-29.95893096923828,117.7073974609375,-5.163251876831055,-13.375504493713379,3338.0625,1454.5421142578125,523.0307006835938,752.305908203125,18.83424949645996,18.970468521118164,18.87947654724121,19.055980682373047,-0.002210888545960188,-0.004002461209893227,0.0006967054796405137,-8.464517304673791e-05,-0.001620250171981752,-0.007875744253396988,-0.013394764624536037,-0.013747182674705982,246.61813354492188,1334.926513671875,1077.1185302734375,1642.6060791015625,-294.4924011230469,-536.9600219726562,77.69713592529297,-12.01613712310791,0.3053932189941406,0.09913212805986404,0.03048306703567505,18.965103149414062,-0.03819899633526802,0.11650735139846802,0.03002684749662876,1.38174569606781,1.7596666812896729,1.4383232593536377,-0.0227056834846735,2591.76416015625,2869.2060546875,1784.4237060546875,2422.85400390625
1765176678.5763938,14012902332939303710,670,27.336326599121094,28.939132690429688,54.167884826660156,53.76786422729492,-3.768407106399536,-0.2610231637954712,1.5659222602844238,4.850671768188477,-504.5680847167969,-210.62965393066406,-124.66876983642578,-510.86566162109375,10.189638137817383,10.189260482788086,10.189587593078613,10.189565658569336,3.9781043597031385e-05,5.569100903812796e-05,4.295495091355406e-05,5.3305218898458406e-05,0.003936151973903179,-0.0025531130377203226,-0.000911096460185945,0.002072131261229515,-641.63720703125,474.544921875,-60.66934585571289,-72.30781555175781,-4.385158061981201,-6.648983955383301,5.970376968383789,-6.868074893951416,0.3034086227416992,0.007168045733124018,0.07637760043144226,10.183890342712402,0.0014950156910344958,-0.0005281731719151139,-0.0015294502954930067,-0.8117275834083557,-0.014812147244811058,-0.4210151135921478,-0.0,2211.5048828125,2544.38818359375,2397.6357421875,2165.63525390625
1765176679.6254632,14012902332939303710,702,28.63489532470703,28.428380966186523,54.116493225097656,53.80118942260742,-0.7358192801475525,-1.3494863510131836,15.409066200256348,-2.8540937900543213,-129.47021484375,85.35458374023438,1025.676513671875,-241.479248046875,9.509310722351074,9.509700775146484,9.509066581726074,9.509151458740234,5.294278162182309e-05,6.885526818223298e-05,2.8081471100449562e-05,3.4740111004794016e-05,0.00363779254257679,-0.002934823976829648,-0.0011815432226285338,0.0017789247212931514,-623.80712890625,524.8294067382812,-36.12279510498047,-42.9345817565918,-6.2285661697387695,-8.077249526977539,3.924229621887207,-4.525999069213867,6.589694499969482,0.0038310103118419647,0.07640660554170609,9.503857612609863,0.010674795135855675,-1.4657300198450685e-05,0.01608392968773842,0.05912650004029274,-0.012859963811933994,0.9552123546600342,-0.0,2502.605224609375,2454.430419921875,2441.24462890625,2171.8701171875
1765176680.6714315,14012902332939303710,731,27.563800811767578,27.37666893005371,53.99220275878906,53.86210632324219,-16.053356170654297,-19.829458236694336,-5.837380409240723,-6.00099515914917,679.4972534179688,892.6996459960938,-290.0942687988281,73.14385223388672,9.747244834899902,9.798215866088867,9.768784523010254,9.768427848815918,-0.0016906509408727288,-0.002305741421878338,-0.00017670680244918913,-0.00018644890224095434,0.003204186214134097,-0.0031863502226769924,-0.0014945416478440166,0.0015271279262378812,-519.03759765625,514.113525390625,17.26197624206543,-22.783294677734375,180.3929901123047,-244.04214477539062,-22.727558135986328,-23.58634376525879,0.30466175079345703,0.0003959177993237972,0.09459438920021057,9.761313438415527,-0.0011464973213151097,-0.0003424260066822171,0.004860129673033953,-0.5280845165252686,-0.018933802843093872,0.8189228177070618,-0.0,2156.740234375,2122.358154296875,2191.786865234375,2125.151123046875
1765176681.6802082,14012902332939303710,754,25.480945587158203,29.606552124023438,53.25794219970703,54.08378219604492,-17.057619094848633,32.07273864746094,10.863840103149414,-5.894154071807861,-5.3710551261901855,457.5849914550781,-42.12403869628906,246.2535858154297,8.076770782470703,9.00333309173584,8.317366600036621,9.449762344360352,0.015932375565171242,-0.008609708398580551,0.0001879549236036837,0.00033161669853143394,-0.005127815529704094,-0.010444151237607002,0.005556698422878981,-0.05763592943549156,458.66845703125,1699.4925537109375,-538.8496704101562,4060.027587890625,1172.44580078125,-1146.093017578125,23.330745697021484,31.063589096069336,0.3023414611816406,1.1587483882904053,0.06596354395151138,8.508350372314453,0.005729204975068569,0.7349560260772705,-0.051569681614637375,0.23561474680900574,-0.17018435895442963,0.17876966297626495,-0.30413997173309326,1491.3729248046875,3232.99267578125,1936.3616943359375,2401.14794921875
1765176682.7253556,14012902332939303710,782,28.80335235595703,36.74678039550781,53.06374740600586,53.23979187011719,38.37771224975586,-40.9752082824707,6.341635704040527,-16.093477249145508,1401.581298828125,-1305.8466796875,937.06982421875,-781.5956420898438,16.333568572998047,14.912067413330078,9.335789680480957,10.910801887512207,0.8624684810638428,0.43086662888526917,-0.0012531111715361476,-0.0008890283643268049,-0.12777967751026154,-0.11660132557153702,0.026020942255854607,-0.030366798862814903,379.4564208984375,1562.043212890625,-2201.50732421875,2356.8642578125,3410.4453125,5069.8359375,-140.4356689453125,-78.32268524169922,0.30323219299316406,0.44948938488960266,0.03088396228849888,9.8517484664917,-0.08739102631807327,1.0047260522842407,-0.02014329843223095,-1.4157931804656982,-1.6191385984420776,-0.04736188426613808,-0.23924562335014343,2130.7861328125,3417.06298828125,1902.414794921875,1703.363525390625
1765176683.7650485,14012902332939303710,808,27.588258743286133,31.070188522338867,55.59611511230469,54.4503288269043,-33.867916107177734,2.8716397285461426,-8.941143035888672,0.9653716683387756,364.3780212402344,-407.35369873046875,-111.8346939086914,-828.4269409179688,-9.126813083071283e-09,-9.116023491628766e-09,-4.238100093090225e-09,-5.828042493050134e-09,-0.9610331058502197,-0.9728970527648926,-0.9605342745780945,-0.9723911285400391,-0.02589939348399639,-0.03145786002278328,-0.1040075495839119,-0.12633372843265533,66.76315307617188,116.91979217529297,467.904296875,486.7027282714844,-2543.619873046875,-3520.40185546875,-4354.427734375,-3538.73828125,0.30297374725341797,0.16392731666564941,0.08412544429302216,7.491864204406738,0.021524354815483093,0.2337198555469513,-0.006910115946084261,-0.9483159184455872,-1.0297660827636719,0.432947039604187,-0.18757742643356323,1546.29833984375,2255.56494140625,3217.824951171875,2585.3193359375
1765176684.7781081,14012902332939303710,832,30.021251678466797,27.723604202270508,53.256038665771484,54.28622055053711,5.248188495635986,-5.037299633026123,-1.225545883178711,1.6374884843826294,-9.501713752746582,5.988034725189209,2.1323561668395996,-2.065300941467285,-7.138389705729775e-12,-7.138393175176727e-12,0.0,0.0,0.0005498722312040627,0.0005698486347682774,0.0009266984416171908,0.0009307126747444272,0.0026470099110156298,0.0026458343490958214,0.0025439797900617123,0.0025438007432967424,107.31394958496094,64.7357406616211,-213.5982666015625,127.31700897216797,-100.8575439453125,-311.4476623535156,-298.9812927246094,591.4796752929688,0.3037853240966797,0.00919357966631651,0.0002172508102376014,-0.0019145871046930552,-0.00426567392423749,-0.0007944703102111816,0.0007907137041911483,0.009219505824148655,-0.0004927231348119676,-0.003134814091026783,0.15260577201843262,2663.33203125,2167.9599609375,1822.343017578125,2433.3740234375
1765176685.8250937,14012902332939303710,859,29.29826545715332,28.28665542602539,53.24053955078125,54.172271728515625,5.531832218170166,-6.382651329040527,-1.5136598348617554,1.5854089260101318,-7.067613124847412,16.34805679321289,6.2897796630859375,7.657706260681152,-7.138389705729775e-12,-7.138393175176727e-12,0.0,0.0,0.0003844020247925073,0.0008172265952453017,0.0004463548248168081,0.0009032661328092217,0.0017332789720967412,0.0017346927197650075,0.0008208831422962248,0.000783429597504437,-61.76266860961914,-60.04540252685547,-229.45848083496094,247.3672637939453,-80.05315399169922,-234.73507690429688,153.16677856445312,8.370240211486816,0.3038034439086914,0.004910067189484835,0.0011049096938222647,-0.0016263151774182916,0.0029686884954571724,-0.0016198240919038653,-0.00019898546452168375,0.010207634419202805,6.245914119062945e-05,-0.004958202596753836,0.1039910688996315,2552.3134765625,2260.51416015625,1806.1761474609375,2370.162109375
1765176686.8673308,14012902332939303710,883,28.811779022216797,29.07501792907715,53.77356719970703,53.84456253051758,0.08437781780958176,0.2257525771856308,0.004917382728308439,0.06280839443206787,-0.8046626448631287,1.4886258840560913,0.40233129262924194,0.9387733340263367,-7.138389705729775e-12,-7.138393175176727e-12,0.0,0.0,6.787232996430248e-05,0.00028378915158100426,5.894329660804942e-05,0.0002935506054200232,0.0011589580681174994,0.001160209532827139,0.0005278634489513934,0.0005273043643683195,-91.97419738769531,-80.39730834960938,-174.5795135498047,380.7403259277344,-70.57363891601562,-231.2599639892578,514.76953125,-305.8477783203125,0.3034534454345703,0.0014470914611592889,-0.0026528178714215755,-0.00043652462773025036,0.0005128729389980435,0.00018701821682043374,-0.001428910531103611,0.0017427756683900952,-0.00027967614005319774,-0.00022315418755169958,-0.0,2445.073974609375,2448.255859375,2145.74658203125,2188.285888671875
1765176687.8753865,14012902332939303710,910,28.825010299682617,29.14447021484375,53.76747512817383,53.8614501953125,-0.0753253623843193,-0.04649161919951439,-0.00447034789249301,-0.003576278453692794,-1.0728833675384521,0.5766748785972595,0.2816319167613983,-0.026822088286280632,-7.138389705729775e-12,-7.138393175176727e-12,0.0,0.0,-4.88884215883445e-05,7.39075185265392e-05,-5.5927070206962526e-05,8.118731784634292e-05,0.001019098679535091,0.001019145711325109,0.0007236032979562879,0.0007235902012325823,-109.86327362060547,-98.37256622314453,-175.89735412597656,382.8052673339844,-53.93843460083008,-203.98526000976562,495.4792175292969,-276.4312744140625,0.30340576171875,0.0020197941921651363,-0.0027193562127649784,-0.0003077549336012453,0.0017257590079680085,-0.0005116018000990152,-0.001779567333869636,-0.0005513545474968851,-0.0007848324603401124,0.00012324888666626066,-0.0,2453.419921875,2459.03125,2143.24267578125,2199.7705078125
1765176688.921427,14012902332939303710,936,28.773019790649414,29.09689712524414,53.76216506958008,53.85512924194336,-0.0255927424877882,-0.03721564635634422,-0.005811452399939299,-0.008493661880493164,-0.3419816195964813,-0.40233123302459717,-0.04023313149809837,-0.147521510720253,-7.138389705729775e-12,-7.138393175176727e-12,0.0,0.0,-6.764952559024096e-05,-4.823170002055122e-06,-7.304330210899934e-05,9.569129133524257e-07,0.000914501491934061,0.0009142152266576886,0.0008160013239830732,0.0008161351433955133,-114.73401641845703,-103.37834930419922,-167.82693481445312,383.89697265625,-52.222808837890625,-194.88912963867188,484.4877014160156,-266.0223083496094,0.3034515380859375,0.0019412420224398375,-0.002470820676535368,-0.00022944580996409059,0.0016624715644866228,-0.0008112824871204793,-0.0018743922701105475,-0.0008304300135932863,-0.0004132801841478795,0.00037432179669849575,-0.0,2445.19189453125,2449.427490234375,2138.784423828125,2195.8349609375
1765176689.9695163,14012902332939303710,961,28.757373809814453,29.074979782104492,53.76110076904297,53.847755432128906,-0.009946524165570736,-0.0037997958716005087,0.0024586913641542196,0.0006705521955154836,-0.5498527884483337,0.3620981276035309,-0.06705522537231445,-0.026822084560990334,-7.138389705729775e-12,-7.138393175176727e-12,0.0,0.0,-5.755562597187236e-05,-2.7831334591610357e-05,-6.207959813764319e-05,-2.287142342538573e-05,0.0008629990043118596,0.0008626655326224864,0.0008685339125804603,0.0008686864748597145,-116.76557922363281,-105.92496490478516,-163.4557647705078,384.17828369140625,-54.94173812866211,-193.7709503173828,479.7630615234375,-263.1348571777344,0.30347251892089844,0.0019135914044454694,-0.0023202679585665464,-0.00020832530572079122,0.0014585163444280624,-0.0009358717361465096,-0.0018427693285048008,-0.00011884839477716014,-5.126231917529367e-05,4.651257404475473e-05,-0.0,2442.4453125,2444.447265625,2137.355712890625,2191.54736328125
1765176690.9788475,14012902332939303710,986,28.748897552490234,29.062313079833984,53.76047134399414,53.844017028808594,0.00011175870167789981,-0.01452863123267889,-0.0008940696134231985,-0.004023313522338867,0.5766748785972595,0.15422706305980682,0.4157423675060272,-0.013411058112978935,-7.138389705729775e-12,-7.138393175176727e-12,0.0,0.0,-5.50849836145062e-05,-3.8008092815289274e-05,-5.9270227211527526e-05,-3.3370324672432616e-05,0.0008430493180640042,0.0008426866843365133,0.000887408503331244,0.0008875722996890545,-117.14115905761719,-106.8684310913086,-161.19239807128906,384.3409729003906,-55.947505950927734,-193.08645629882812,477.4081115722656,-262.0064697265625,0.3034820556640625,0.0018978430889546871,-0.002266074065119028,-0.00019218603847548366,0.001355202286504209,-0.0009861683938652277,-0.0018265658291056752,0.00046678815851919353,0.00032816544990055263,1.524807794339722e-05,-0.0,2440.7646484375,2441.63134765625,2136.3759765625,2189.22705078125
1765176692.1576605,14012902332939303710,999,28.745452880859375,29.0571346282959,53.75965881347656,53.84192657470703,0.0028925645165145397,-0.006341391243040562,-0.012682782486081123,0.000890019815415144,0.9470848441123962,0.17527727782726288,-0.10335549712181091,0.1332610845565796,-7.138389705729775e-12,-7.138393175176727e-12,0.0,0.0,-6.116729491623119e-05,-4.794948108610697e-05,-6.523400952573866e-05,-4.33950663136784e-05,0.000835289538372308,0.000834852282423526,0.0008981507853604853,0.0008983474690467119,-117.98836517333984,-107.0883560180664,-160.93177795410156,384.1684875488281,-57.13426971435547,-193.24130249023438,475.5765380859375,-261.8759460449219,0.3034849166870117,0.0018712900346145034,-0.002232698258012533,-0.0001678229309618473,0.0012945426860824227,-0.0010272106155753136,-0.001837891642935574,0.0006290006567724049,-0.00018821137200575322,-0.0010037963511422276,-0.0,2440.0419921875,2440.542236328125,2135.8388671875,2187.988037109375
1765176693.1683235,14012902332939303710,1020,28.74148941040039,29.0501766204834,53.759403228759766,53.8392219543457,-0.009499489329755306,-0.005699693690985441,0.00044703480671159923,-0.0020116567611694336,0.43585899472236633,-0.09387728571891785,0.09387730062007904,0.06705521047115326,-7.138389705729775e-12,-7.138393175176727e-12,0.0,0.0,-6.197411130415276e-05,-5.831034650327638e-05,-6.580836634384468e-05,-5.4018008086131886e-05,0.0008174594840966165,0.0008170078508555889,0.0009106264333240688,0.0009108291123993695,-117.7634048461914,-108.11135864257812,-159.207763671875,384.4981689453125,-58.1269645690918,-193.3344268798828,473.9466247558594,-261.42822265625,0.30348873138427734,0.0018697121413424611,-0.002179315546527505,-0.000162390002515167,0.0012118195882067084,-0.001047893543727696,-0.0018154627177864313,0.0003767246089410037,0.00018408054893370718,-0.00016271368076559156,-0.0,2439.072021484375,2438.60791015625,2135.49169921875,2186.496826171875
1765176694.1683457,14012902332939303710,1040,28.737552642822266,29.044189453125,53.759395599365234,53.83741760253906,-0.004246830940246582,-0.006705522071570158,-0.0006705521955154836,-0.0024586913641542196,-0.2078711837530136,-0.43585890531539917,-0.06705521792173386,-0.1475214809179306,-7.138389705729775e-12,-7.138393175176727e-12,0.0,0.0,-6.0199610743438825e-05,-6.322374247247353e-05,-6.386175664374605e-05,-5.9105197578901425e-05,0.0008071453776210546,0.0008066821610555053,0.0009206876275129616,0.0009208946721628308,-118.3514175415039,-108.100341796875,-158.91502380371094,384.5387878417969,-58.6739387512207,-192.9783172607422,472.9129638671875,-260.94427490234375,0.3034934997558594,0.0018644676310941577,-0.0021487995982170105,-0.00015378478565253317,0.0011648773215711117,-0.001064834650605917,-0.0018116588471457362,8.278525638161227e-05,3.912951433449052e-05,-3.0698716727783903e-05,-0.0,2438.330810546875,2437.378662109375,2135.27734375,2185.45361328125
1765176695.2170322,14012902332939303710,1061,28.73525619506836,29.04055404663086,53.75920867919922,53.836238861083984,-0.001788139226846397,-0.0010058283805847168,-0.0011175869731232524,-0.0008940696134231985,-0.006705522071570158,0.0,-0.06705521792173386,-0.013411044143140316,-7.138389705729775e-12,-7.138393175176727e-12,0.0,0.0,-5.789892384200357e-05,-6.62416496197693e-05,-6.142650818219408e-05,-6.224626849871129e-05,0.0008008245495148003,0.000800357956904918,0.0009301539976149797,0.00093036238104105,-118.50296020507812,-108.40209197998047,-158.66622924804688,384.7388916015625,-58.882198333740234,-192.85646057128906,472.3180847167969,-260.5076904296875,0.3034934997558594,0.0018641832284629345,-0.0021210312843322754,-0.0001527958520455286,0.0011242292821407318,-0.0010771621018648148,-0.0018041279399767518,-0.00013844108616467565,-6.58677818137221e-05,6.0307789681246504e-05,-0.0,2437.94140625,2436.594970703125,2135.086181640625,2184.7998046875
1765176696.262489,14012902332939303710,1082,28.734615325927734,29.039661407470703,53.7591552734375,53.83600997924805,0.0,0.0,0.0,0.0,0.020116565749049187,-0.34198158979415894,0.24139876663684845,-0.05364418402314186,-7.138389705729775e-12,-7.138393175176727e-12,0.0,0.0,-5.882710684090853e-05,-6.665931141469628e-05,-6.236392073333263e-05,-6.265661068027839e-05,0.0008004636620171368,0.0007999925874173641,0.0009286418789997697,0.0009288520086556673,-118.44156646728516,-108.34363555908203,-158.51039123535156,384.7669982910156,-58.9443244934082,-192.8486785888672,472.0646057128906,-260.4101867675781,0.3034934997558594,0.0018621986964717507,-0.002121476922184229,-0.00015016333782114089,0.0011234849225729704,-0.0010781461605802178,-0.001805527019314468,0.0004020100168418139,0.00017461598326917738,-0.00014099756663199514,-0.0,2437.810791015625,2436.43896484375,2135.04833984375,2184.647705078125
1765176697.3094876,14012902332939303710,1103,28.734619140625,29.0394344329834,53.759185791015625,53.83601760864258,0.00044703480671159923,-0.001788139226846397,-0.00022351740335579962,-0.0011175869731232524,-0.08046625554561615,-0.10058282315731049,-0.013411043211817741,-0.040233127772808075,-7.138389705729775e-12,-7.138393175176727e-12,0.0,0.0,-5.890449756407179e-05,-6.688774737995118e-05,-6.243415555218235e-05,-6.288616714300588e-05,0.0008002429385669529,0.0007997708162292838,0.0009289378649555147,0.0009291484020650387,-118.39759826660156,-108.32423400878906,-158.49847412109375,384.6522216796875,-58.93943405151367,-192.7227783203125,471.9507751464844,-260.3717956542969,0.30348873138427734,0.0018597834277898073,-0.002119445474818349,-0.00014937174273654819,0.0011198967695236206,-0.0010797441937029362,-0.0018046809127554297,0.00012329079618211836,4.7644130972912535e-05,-6.837536784587428e-05,-0.0,2437.79931640625,2436.392822265625,2134.999267578125,2184.65869140625
1765176698.312208,14012902332939303710,1124,28.734268188476562,29.03919792175293,53.759193420410156,53.83588790893555,0.0,0.0,0.0,0.0,-0.033527616411447525,-0.006705508101731539,-0.013411043211817741,0.026822084560990334,-7.138389705729775e-12,-7.138393175176727e-12,0.0,0.0,-5.937074092798866e-05,-6.715359631925821e-05,-6.290713645284995e-05,-6.315162318060175e-05,0.000800176989287138,0.0007997025386430323,0.0009286373970098794,0.0009288489236496389,-118.36744689941406,-108.29631805419922,-158.45066833496094,384.5757141113281,-58.96405792236328,-192.7009735107422,471.82879638671875,-260.3325500488281,0.30348777770996094,0.0018569447565823793,-0.0021203067153692245,-0.00014711999392602593,0.0011165537871420383,-0.0010817068396136165,-0.001804049825295806,-9.457579835725483e-06,-6.922054581082193e-06,9.080394534066727e-07,-0.0,2437.70068359375,2436.3447265625,2134.981689453125,2184.56494140625
1765176699.3611164,14012902332939303710,1145,28.734209060668945,29.03908920288086,53.759151458740234,53.83589172363281,-0.0003352760977577418,-0.001788139226846397,-0.00022351740335579962,-0.0024586913641542196,0.18104907870292664,-0.04023313149809837,0.013411043211817741,-0.1475214809179306,-7.138389705729775e-12,-7.138393175176727e-12,0.0,0.0,-5.947950921836309e-05,-6.709784065606073e-05,-6.30167851340957e-05,-6.309048330876976e-05,0.000800141307990998,0.0007996667991392314,0.0009280855301767588,0.0009282971732318401,-118.34184265136719,-108.27265167236328,-158.38023376464844,384.562744140625,-58.96138000488281,-192.65805053710938,471.7251892089844,-260.2898864746094,0.3034849166870117,0.0018573023844510317,-0.002119779586791992,-0.00014744307554792613,0.001118053449317813,-0.0010810594540089369,-0.001804777537472546,0.00026175283710472286,9.91229826468043e-05,-0.00012113944831071422,-0.0,2437.697998046875,2436.33447265625,2134.98193359375,2184.552490234375
1765176700.4118323,14012902332939303710,1166,28.734230041503906,29.038965225219727,53.759132385253906,53.83591842651367,-0.0012293456820771098,-0.0026822087820619345,-0.0006705521955154836,-0.0006705521955154836,-0.040233127772808075,-0.013411044143140316,0.0,0.0,-7.138389705729775e-12,-7.138393175176727e-12,0.0,0.0,-5.9506986872293055e-05,-6.717481301166117e-05,-6.304376438492909e-05,-6.316889630397782e-05,0.000800182344391942,0.00079970748629421,0.0009283709223382175,0.0009285826236009598,-118.32390594482422,-108.2568130493164,-158.36831665039062,384.4527893066406,-58.95159149169922,-192.6256103515625,471.61614990234375,-260.2389831542969,0.3034820556640625,0.0018561845645308495,-0.0021196671295911074,-0.0001469317066948861,0.0011159710120409727,-0.0010819779708981514,-0.0018039235146716237,-1.2977979167771991e-05,-8.612404599261936e-06,3.073364212013985e-07,-0.0,2437.6884765625,2436.31494140625,2134.9697265625,2184.56689453125
1765176701.4122086,14012902332939303710,1186,28.73448371887207,29.039331436157227,53.759239196777344,53.8360710144043,0.0,0.0,0.0,0.0,-0.09387730062007904,0.0,0.026822086423635483,0.08046625554561615,-7.138389705729775e-12,-7.138393175176727e-12,0.0,0.0,-5.891155160497874e-05,-6.691290764138103e-05,-6.244175892788917e-05,-6.291288445936516e-05,0.0008003641269169748,0.0007998928194865584,0.0009293892653658986,0.0009295993950217962,-118.32186126708984,-108.25643157958984,-158.41717529296875,384.3111877441406,-58.89181137084961,-192.56541442871094,471.5913391113281,-260.17083740234375,0.3034801483154297,0.001859223935753107,-0.002118970500305295,-0.00014974903024267405,0.0011187277268618345,-0.001080127665773034,-0.0018037381814792752,-0.00024262115766759962,-0.00010909744742093608,0.00011522322165546939,-0.0,2437.7587890625,2436.42138671875,2135.02490234375,2184.6767578125
1765176702.45519,14012902332939303710,1208,28.69904136657715,28.883560180664062,53.76612854003906,53.7674560546875,1.4964489936828613,-0.6689875721931458,0.23514030873775482,-1.3118236064910889,35.083290100097656,-42.928749084472656,3.419816255569458,-46.24127197265625,-7.138389705729775e-12,-7.138393175176727e-12,0.0,0.0,0.0001243479346157983,4.441814962774515e-05,0.00012572792184073478,4.801422619493678e-05,0.0005187451606616378,0.0005196307902224362,0.0007274904055520892,0.0007271206704899669,-86.92085266113281,-77.5364990234375,-175.29901123046875,363.28680419921875,-12.284808158874512,-163.23300170898438,255.4839630126953,-192.07485961914062,0.30359935760498047,0.0016705946763977408,-0.0018581404583528638,0.0002905622241087258,0.0012809375766664743,-0.000523191993124783,-0.0015733587788417935,0.26680153608322144,0.035224296152591705,-0.1331748217344284,-0.0,2442.271240234375,2412.28369140625,2125.9794921875,2129.9345703125
1765176703.4612267,14012902332939303710,1228,28.738697052001953,29.021821975708008,53.77560806274414,53.84681701660156,0.0,0.0,0.0,0.0,21.544843673706055,9.02563190460205,4.854797840118408,-11.962650299072266,-1.9023971037802206e-13,-1.9023981879823931e-13,0.0,0.0,2.1945095795672387e-05,-4.586154318531044e-06,1.876136775535997e-05,-1.8045159322355175e-06,0.0007436963496729732,0.0007438613683916628,0.000872643431648612,0.0008725753286853433,-99.4604263305664,-89.13104248046875,-204.4248504638672,344.1473693847656,9.716717720031738,-150.50357055664062,286.6903991699219,-199.2365264892578,0.3034534454345703,0.0013061717618256807,-0.0021532101090997458,5.808767309645191e-05,0.0010589880403131247,-0.0010643869172781706,-0.0016081451904028654,-0.049218978732824326,-0.031638920307159424,0.022617125883698463,-0.0,2445.937255859375,2444.2666015625,2146.38330078125,2190.5400390625
1765176704.4652746,14012902332939303710,1248,28.680587768554688,28.977224349975586,53.76934814453125,53.84347152709961,-0.196583554148674,-0.0026822087820619345,0.13925135135650635,-0.026375053450465202,-2.139061689376831,-0.3486871123313904,17.635522842407227,-12.136994361877441,-1.9023971037802206e-13,-1.9023981879823931e-13,0.0,0.0,-6.749406747985631e-05,-6.48553395876661e-05,-7.077607733663172e-05,-6.140739424154162e-05,0.0006849264027550817,0.0006844601011835039,0.0007529061404056847,0.0007531219744123518,-95.29908752441406,-85.15779113769531,-196.70249938964844,353.7597961425781,7.598261833190918,-149.5257110595703,283.0532531738281,-200.31370544433594,0.3034992218017578,0.0011514658108353615,-0.0018573899287730455,0.00026955601060763,0.0007973845931701362,-0.0010897591710090637,-0.0016486735548824072,-0.04754878580570221,-0.012391347438097,0.02245250530540943,-0.0,2435.01611328125,2434.55126953125,2139.537109375,2188.33642578125
1765176705.4676101,14012902332939303710,1268,28.685794830322266,28.977642059326172,53.770877838134766,53.84349822998047,-0.2753734588623047,0.15020368993282318,0.10572373121976852,0.12025236338376999,-0.04693865403532982,2.4475152492523193,15.878674507141113,-12.002882957458496,-1.9023971037802206e-13,-1.9023981879823931e-13,0.0,0.0,-6.328624294837937e-05,-7.377396104857326e-05,-6.648735143244267e-05,-7.072953303577378e-05,0.0006936547579243779,0.0006931509124115109,0.0007847548113204539,0.0007849806570447981,-96.514404296875,-86.43953704833984,-198.52879333496094,350.75604248046875,9.551950454711914,-148.23434448242188,285.0400390625,-199.64031982421875,0.3034934997558594,0.00120336445979774,-0.0018933368846774101,0.000341203500283882,0.0006747886072844267,-0.0010624119313433766,-0.0015786472940817475,-0.06882133334875107,-0.017930010333657265,0.03150682523846626,-0.0,2436.294677734375,2435.653076171875,2141.21923828125,2188.7021484375
1765176706.518426,14012902332939303710,1289,28.685949325561523,28.9708251953125,53.768192291259766,53.84044647216797,-0.26229768991470337,0.04034489020705223,-0.1819431632757187,0.27492642402648926,-24.7232608795166,17.990915298461914,-8.79764461517334,29.638408660888672,-1.9023971037802206e-13,-1.9023981879823931e-13,0.0,0.0,-6.431391375372186e-05,-7.122543320292607e-05,-6.755912909284234e-05,-6.821747228968889e-05,0.0006787850870750844,0.000678426877129823,0.0008064382127486169,0.0008065855945460498,-94.99691009521484,-84.175537109375,-199.81900024414062,348.3692626953125,20.257734298706055,-147.39590454101562,296.7497863769531,-198.58486938476562,0.303497314453125,0.0018212440190836787,-0.002401119563728571,0.00011756100866477937,0.0019436185248196125,-0.0007095868932083249,-0.0021779744420200586,-0.005823089275509119,0.0010398832382634282,0.007617501076310873,-0.0,2431.60009765625,2434.895751953125,2139.43212890625,2187.93408203125
1765176707.5600514,14012902332939303710,1311,29.263620376586914,29.369569778442383,53.75099563598633,53.77102279663086,-7.219165325164795,0.2422928661108017,0.5585699677467346,1.014992594718933,713.4540405273438,517.5255126953125,-112.3309097290039,-29.651811599731445,0.0,0.0,0.0,0.0,0.0006324544665403664,0.0005877668154425919,-0.00015937487478367984,-0.0001996706851059571,0.0006349112372845411,0.0006349370814859867,0.0008423695689998567,0.0008423742256127298,-95.84329986572266,-94.95565795898438,-217.51351928710938,331.42864990234375,176.87460327148438,-84.87388610839844,172.87313842773438,-346.3226013183594,0.3032073974609375,0.0026216343976557255,-0.0037785181775689125,0.00030253827571868896,0.0023368187248706818,5.175905971555039e-05,-0.0014409003779292107,0.008009438402950764,-0.000648641842417419,0.04622335731983185,-0.0,2503.929931640625,2490.1240234375,2136.12646484375,2145.1015625
1765176708.562528,14012902332939303710,1331,28.514204025268555,28.726594924926758,53.768253326416016,53.799110412597656,-1.3856961727142334,-0.12975186109542847,-0.6942450404167175,0.8422135710716248,-273.665771484375,95.33910369873047,-78.69599914550781,243.71888732910156,0.0,0.0,0.0,0.0,-0.00015517527936026454,-0.0001411804842064157,-0.00015780318062752485,-0.0001380962785333395,0.0005152105586603284,0.0005144175374880433,0.0005264230421744287,0.0005267243250273168,-78.48687744140625,-88.11724853515625,-201.6047821044922,354.0022888183594,253.570556640625,92.47193145751953,61.52008056640625,-430.6486511230469,0.30365657806396484,0.0029052949976176023,-0.0030975323170423508,-7.526487024733797e-05,0.0004042171931359917,-0.00010452816786710173,-0.0015472853556275368,-0.15768200159072876,0.03512929007411003,0.08346328139305115,-0.0,2416.98046875,2423.545654296875,2125.35595703125,2160.90576171875
1765176709.6189792,14012902332939303710,1352,28.62184715270996,28.81197166442871,53.7822265625,53.799156188964844,-1.4412401914596558,0.24609267711639404,-0.27313828468322754,1.0462850332260132,-189.67909240722656,59.85348892211914,-32.87046813964844,155.54127502441406,0.0,0.0,0.0,0.0,-0.00013849746028427035,-0.00011218195140827447,-0.0001432707067579031,-0.00010982972889905795,0.0006271107122302055,0.00062649289611727,0.0005044963327236474,0.0005047368467785418,-83.27132415771484,-92.79888916015625,-203.53939819335938,356.1336669921875,244.7554473876953,80.31261444091797,54.25497055053711,-442.7934265136719,0.3035602569580078,0.0028830603696405888,-0.0035878298804163933,1.6429941751994193e-05,0.00108701316639781,9.630688873585314e-05,-0.0014262697659432888,-0.08544357866048813,0.05447820946574211,0.07302696257829666,-0.0,2442.090576171875,2437.66015625,2139.666259765625,2162.95068359375
1765176710.660611,14012902332939303710,1373,28.6527099609375,28.832548141479492,53.78864669799805,53.79426574707031,1.6957148313522339,-0.780858039855957,0.2950429618358612,-1.5436111688613892,117.51427459716797,-87.82221221923828,15.570220947265625,-133.6812744140625,0.0,0.0,0.0,0.0,-0.00014462409308180213,-0.00015512033132836223,-0.00014515029033645988,-0.00014981268031988293,0.0006287555443122983,0.0006272702594287694,0.0006643328233622015,0.0006650330615229905,-82.690673828125,-92.49392700195312,-213.80426025390625,337.9653015136719,244.48863220214844,74.56085205078125,52.55474090576172,-439.7699279785156,0.30353260040283203,0.0010669796029105783,-0.0016831661341711879,0.00013378640869632363,0.0025632381439208984,-0.0008125026361085474,-0.00264553795568645,0.33113616704940796,-0.053520213812589645,-0.22978562116622925,-0.0,2476.29833984375,2438.3447265625,2142.419921875,2137.27783203125
1765176711.7140756,14012902332939303710,1394,28.6535701751709,28.833133697509766,53.78899002075195,53.794464111328125,0.0,0.0,0.0,0.0,117.14546203613281,-93.99800109863281,16.066429138183594,-135.69293212890625,0.0,0.0,0.0,0.0,-0.00014390690193977207,-0.00015317538054659963,-0.00014437519712373614,-0.00014774066221434623,0.0006329251336865127,0.000631467963103205,0.0006621091742999852,0.0006627984112128615,-82.20242309570312,-92.91075897216797,-213.64505004882812,338.1431579589844,244.516357421875,74.78858947753906,52.717613220214844,-439.73040771484375,0.3035297393798828,0.001080248737707734,-0.0016356572741642594,9.64626160566695e-05,0.0025992232840508223,-0.0008023136761039495,-0.002652957569807768,0.3407920002937317,-0.052918389439582825,-0.23379403352737427,-0.0,2476.46044921875,2438.1494140625,2142.41943359375,2136.87939453125
1765176716.636979,14012902332939303710,1403,29.019594192504883,29.019594192504883,54.11763381958008,54.11763381958008,23.387073516845703,11.181904792785645,20.082366943359375,18.594188690185547,1296.774169921875,721.2861328125,1185.6971435546875,1214.611328125,0.00054931640625,0.00054931640625,0.00054931640625,0.00054931640625,-0.0001373291015625,-0.0001678466796875,-0.0001373291015625,-0.0001373291015625,0.0006316900253295898,0.0006316900253295898,0.0006866455078125,0.0006866455078125,-94.99082946777344,-105.17703247070312,-224.61354064941406,328.48712158203125,249.11343383789062,81.98486328125,59.28562545776367,-434.638427734375,0.30352783203125,0.0011041749967262149,-0.0016197290970012546,7.294871466001496e-05,0.001525609171949327,-0.0015258758794516325,-0.001525604398921132,-0.06453634053468704,-0.043974995613098145,0.06762486696243286,-0.001058816909790039,2461.189208984375,2446.433349609375,2149.251220703125,2170.517333984375
1765176717.888438,14012902332939303710,1404,28.726558685302734,28.905611038208008,53.848690032958984,53.879451751708984,-6.700046062469482,-1.8369778394699097,-4.638209342956543,-4.2222442626953125,-1805.22705078125,-781.1329345703125,-1483.2344970703125,-1368.9859619140625,-1.1301354990722601e-10,-5.3168580649298747e-11,-3.828489608670438e-11,-3.828489608670438e-11,-8.703412458999082e-05,-8.591084042564034e-05,-8.988613990368322e-05,-8.235710993176326e-05,0.0007037302129901946,0.000703203899320215,0.000931682123336941,0.0009319530217908323,-88.7264175415039,-99.03748321533203,-230.3502655029297,315.419677734375,242.41578674316406,80.94542694091797,55.19792556762695,-430.0018310546875,0.30352020263671875,0.00019828109361696988,-0.001065005431883037,0.00024364859564229846,-0.0019406437641009688,-0.00150025833863765,-0.0002177190617658198,-0.20797516405582428,0.0015370523324236274,0.07847312092781067,-0.00046839125570841134,2432.07470703125,2418.5078125,2136.458251953125,2155.755126953125
1765176718.891484,14012902332939303710,1424,28.625568389892578,28.842052459716797,53.78387451171875,53.81779861450195,-0.28576698899269104,0.7233023047447205,0.005364417564123869,0.708773672580719,70.58232879638672,40.434295654296875,21.20285987854004,-8.744001388549805,-8.309108956439104e-11,-8.309106180881543e-11,-3.828489608670438e-11,-3.828489608670438e-11,-5.130731369717978e-05,-5.925956793362275e-05,-5.4994288802845404e-05,-5.7026576541829854e-05,0.0007515499019064009,0.000751373590901494,0.0008397502824664116,0.0008398348581977189,-93.36538696289062,-105.26720428466797,-224.45523071289062,326.164306640625,246.95362854003906,84.157470703125,54.978790283203125,-431.5787048339844,0.3035135269165039,0.0018852304201573133,-0.0013650130713358521,0.001168414717540145,-0.002958892146125436,0.0001113272737711668,0.0011786354007199407,-0.2637384235858917,0.010674457997083664,0.1651870757341385,-0.0,2460.560546875,2446.30712890625,2149.2119140625,2169.523681640625
1765176719.8993068,14012902332939303710,1444,29.6496639251709,29.60015106201172,53.56894302368164,53.4963264465332,11.79478931427002,11.714658737182617,-4.143789291381836,-4.014596462249756,-475.0057067871094,-405.11407470703125,101.34724426269531,113.94020080566406,0.4382718503475189,0.4420374929904938,0.17603395879268646,0.1787748634815216,0.0432710275053978,0.04437780752778053,-0.0006602854700759053,-0.0007217239472083747,0.000492237915750593,0.0002874984056688845,0.0003106998628936708,0.00041497201891615987,-105.3006820678711,20.71699333190918,-50.17995071411133,-18.798076629638672,3524.2939453125,3543.251220703125,77.5561752319336,83.27224731445312,0.30341053009033203,0.0018910376820713282,-0.006545839365571737,0.18797467648983002,0.0016632211627438664,-7.722410373389721e-07,0.0059015825390815735,-0.03294043615460396,-0.015343795530498028,-0.3674151599407196,-0.0,2527.12841796875,2504.781982421875,1910.394775390625,1865.68212890625
1765176720.943612,14012902332939303710,1465,28.677797317504883,28.843585968017578,53.80744552612305,53.811649322509766,0.0,0.0,0.0,0.0,33.35326385498047,20.498779296875,4.506111145019531,-15.395878791809082,0.0,0.0,0.0,0.0,5.967826655250974e-05,2.2750808057026006e-05,5.663464980898425e-05,2.4078810383798555e-05,0.0006735075148753822,0.0006738167721778154,0.0007406813092529774,0.000740505289286375,-96.33541107177734,-102.06511688232422,-238.375732421875,317.0079650878906,270.3213195800781,116.50906372070312,4.007267475128174,-467.4207763671875,0.3034629821777344,0.002686954103410244,-0.0028169448487460613,0.0005211455863900483,0.0011731870472431183,0.000498904671985656,-0.0011534286895766854,-0.0031747573520988226,0.019042937085032463,0.005982471164315939,-0.0,2476.31494140625,2453.100830078125,2163.443359375,2165.1328125
1765176721.9928865,14012902332939303710,1486,28.632835388183594,28.761268615722656,53.785430908203125,53.773590087890625,0.0,0.0,0.0,0.0,-262.31329345703125,92.12716674804688,-58.09663772583008,233.51309204101562,0.0,0.0,0.0,0.0,-8.374375465791672e-05,-5.954294829280116e-05,-8.787347178440541e-05,-5.7914716308005154e-05,0.0005217427969910204,0.0005214732955209911,0.0003911846724804491,0.0003913195978384465,-81.45991516113281,-87.39429473876953,-218.0812225341797,343.4986877441406,270.42926025390625,131.60768127441406,2.4210119247436523,-469.2236022949219,0.30356788635253906,0.0027389817405492067,-0.0031067540403455496,-1.703427915344946e-05,-0.0004661549464799464,0.0004469856503419578,-0.0007130523445084691,-0.2252691090106964,0.05108676105737686,0.12065726518630981,-0.0,2441.917724609375,2437.310546875,2138.62109375,2146.106201171875
1765176722.9981139,14012902332939303710,1506,28.64055633544922,28.795364379882812,53.78580093383789,53.79218673706055,-0.2572685480117798,0.5242601037025452,0.009387730620801449,0.6419419646263123,112.39796447753906,7.0005669593811035,39.07978057861328,-52.89315414428711,0.0,0.0,0.0,0.0,-4.1396233427803963e-05,-6.839670822955668e-05,-4.434899892657995e-05,-6.720326928189024e-05,0.000639851379673928,0.0006395425880327821,0.0007300239522010088,0.0007301886798813939,-90.5377197265625,-95.2104721069336,-245.92955017089844,310.745849609375,276.4993896484375,118.70191192626953,7.853275775909424,-465.1548156738281,0.30352306365966797,0.002444266574457288,-0.0012729587033390999,0.0008818752248771489,-0.0034847347997128963,0.0007822852348908782,0.0016291131032630801,-0.24940820038318634,0.006355710327625275,0.15515394508838654,-0.0,2469.4375,2445.20751953125,2150.135498046875,2148.0458984375
1765176724.0479908,14012902332939303710,1527,28.642276763916016,28.809276580810547,53.78738021850586,53.80073547363281,-0.04995613917708397,0.5421414971351624,0.09298323839902878,0.6039440035820007,112.13644409179688,9.320677757263184,28.163190841674805,-48.2663459777832,0.0,0.0,0.0,0.0,-6.185612437548116e-05,-7.680227281525731e-05,-6.51306618237868e-05,-7.513985474361107e-05,0.0006864800816401839,0.0006860810681246221,0.0007248342735692859,0.0007250490598380566,-91.94113159179688,-97.90086364746094,-247.43301391601562,309.7363586425781,275.736572265625,116.9748764038086,6.2389044761657715,-467.65838623046875,0.30350589752197266,0.0021320353262126446,-0.0009527425281703472,0.0008575356914661825,-0.004498646128922701,0.000635290693026036,0.002227777149528265,-0.3171934187412262,0.0017091083573177457,0.19108803570270538,-0.0,2471.021728515625,2448.44482421875,2152.089599609375,2153.754150390625
1765176725.0977898,14012902332939303710,1548,28.64177894592285,28.812335968017578,53.785823822021484,53.802032470703125,-0.18473713099956512,0.6394832730293274,0.010728835128247738,0.6830691695213318,108.4081802368164,18.453596115112305,28.042491912841797,-44.55148696899414,0.0,0.0,0.0,0.0,-5.880804383195937e-05,-7.235010707518086e-05,-6.207275873748586e-05,-7.075326720951125e-05,0.000665356928948313,0.0006649522110819817,0.0007132819155231118,0.0007134951301850379,-89.80548858642578,-94.88001251220703,-247.4038848876953,310.23785400390625,276.0999755859375,117.3043212890625,6.735341548919678,-467.9640808105469,0.30350303649902344,0.002289281692355871,-0.0011215650010854006,0.0008287043892778456,-0.004079371690750122,0.0006953198462724686,0.00198889197781682,-0.31324344873428345,0.0020778002217411995,0.18309129774570465,-0.0,2469.8408203125,2449.652099609375,2150.9306640625,2155.17529296875
1765176726.148187,14012902332939303710,1569,28.639928817749023,28.814552307128906,53.786224365234375,53.80469512939453,-0.15232710540294647,0.5767866373062134,0.039339061826467514,0.6694346070289612,108.20030975341797,15.59704303741455,27.090307235717773,-41.976566314697266,0.0,0.0,0.0,0.0,-6.248986028367653e-05,-7.176349754445255e-05,-6.592288264073431e-05,-7.008865213720128e-05,0.0006784635479561985,0.0006780760595574975,0.0007136843050830066,0.000713889894541353,-91.10872650146484,-96.1189193725586,-247.44921875,310.3102722167969,275.6163024902344,117.0443344116211,6.5753173828125,-468.1048278808594,0.303497314453125,0.0022018051240593195,-0.001047115190885961,0.0008500181720592082,-0.004291356075555086,0.0006728074513375759,0.0021239903289824724,-0.324830025434494,0.003751900279894471,0.1940276324748993,-0.0,2469.5615234375,2449.75537109375,2151.57080078125,2156.982421875
1765176727.1985116,14012902332939303710,1590,28.63894271850586,28.814319610595703,53.78507995605469,53.80435562133789,-0.16495583951473236,0.6569176316261292,0.00782310962677002,0.6857513785362244,108.11984252929688,23.89177131652832,25.628503799438477,-42.955570220947266,0.0,0.0,0.0,0.0,-6.0585625760722905e-05,-7.025498052826151e-05,-6.395455420715734e-05,-6.858895358163863e-05,0.000667607004288584,0.0006671980954706669,0.0007112877210602164,0.0007115028565749526,-89.15325164794922,-94.98493194580078,-247.19674682617188,309.7146301269531,276.030517578125,116.98207092285156,7.03043794631958,-468.0758972167969,0.303497314453125,0.0022089930716902018,-0.0010351163800805807,0.0007982219103723764,-0.004382601473480463,0.0006458743591792881,0.0021594944410026073,-0.3368908762931824,-0.0008798622875474393,0.1957511007785797,-0.0,2469.1953125,2450.2431640625,2150.61767578125,2156.851806640625
1765176728.2387757,14012902332939303710,1611,28.642534255981445,28.80351448059082,53.78493118286133,53.79268264770508,-1.9697473049163818,0.2800672948360443,-0.42803582549095154,1.4021246433258057,-246.6090087890625,72.37269592285156,-50.22435760498047,209.72190856933594,0.0,0.0,0.0,0.0,-9.335369395557791e-05,-4.742603414342739e-05,-9.842548024607822e-05,-4.5514323574025184e-05,0.0005784355453215539,0.00057817786000669,0.000355149939423427,0.0003552544803824276,-78.9260482788086,-85.03629302978516,-223.75857543945312,341.9731750488281,272.6788024902344,126.70304107666016,4.056249141693115,-466.0327453613281,0.30351734161376953,0.0025919859763234854,-0.0037959464825689793,0.0002159940922865644,0.0011909818276762962,0.0006634003948420286,-0.0010857044253498316,-0.1408131718635559,0.058152664452791214,0.11207277327775955,-0.0,2444.129638671875,2443.7607421875,2141.4130859375,2158.841552734375
1765176729.2479331,14012902332939303710,1631,28.639158248901367,28.814910888671875,53.785099029541016,53.804786682128906,-0.19155441224575043,0.664070188999176,0.008046627044677734,0.6953626275062561,106.7385025024414,23.77777862548828,26.124711990356445,-42.2716064453125,0.0,0.0,0.0,0.0,-6.127889355411753e-05,-6.896751438034698e-05,-6.470567313954234e-05,-6.727072468493134e-05,0.0006703080143779516,0.0006699027144350111,0.0007057004841044545,0.0007059133495204151,-89.41436767578125,-94.34516906738281,-247.44956970214844,310.0904846191406,275.9027404785156,117.10102081298828,6.804976940155029,-467.9483337402344,0.3034934997558594,0.002229360630735755,-0.0010741526493802667,0.0007994796033017337,-0.004304841160774231,0.0006634173914790154,0.0021242175716906786,-0.33471858501434326,0.00044786251964978874,0.19483469426631927,-0.0,2469.03955078125,2450.42626953125,2150.67236328125,2157.153076171875
1765176735.1721244,14012902332939303710,1633,28.688507080078125,28.774269104003906,53.79805374145508,53.7537727355957,0.2144649475812912,1.0623782873153687,-0.09365379065275192,0.01363456156104803,-51.101287841796875,110.52935028076172,-9.374320030212402,71.55089569091797,0.0,0.0,0.0,0.0,-7.244599692057818e-05,-2.103870974679012e-05,-7.578539225505665e-05,-1.5790115867275745e-05,0.0007763095200061798,0.000775956257712096,0.0005991910002194345,0.0005993713857606053,-100.5494613647461,-105.20936584472656,-239.21487426757812,315.7234191894531,277.1696472167969,122.6510009765625,7.489224910736084,-457.4043273925781,0.3035144805908203,0.002907248679548502,-0.0019646454602479935,0.0005094716907478869,-0.0008024207199923694,0.0006533492123708129,-0.00036203573108650744,-0.12042009830474854,0.02624228410422802,0.13710619509220123,-0.0,2486.084716796875,2442.30712890625,2150.036865234375,2120.580810546875
1765176736.174432,14012902332939303710,1653,28.647462844848633,28.780231475830078,53.793941497802734,53.779422760009766,0.20541249215602875,0.6595998406410217,0.21860001981258392,0.17881391942501068,108.46852111816406,-5.210190773010254,35.458797454833984,-88.98226928710938,0.0,0.0,0.0,0.0,-5.827908171340823e-05,-7.457888568751514e-05,-6.119681347627193e-05,-7.234539225464687e-05,0.0007006332161836326,0.0007002688362263143,0.0007174088968895376,0.0007176055223681033,-95.29729461669922,-100.44429016113281,-243.6664581298828,309.7840576171875,277.1312561035156,119.16099548339844,8.063738822937012,-461.84967041015625,0.3035106658935547,0.00231944746337831,-0.0011217060964554548,0.0009235780453309417,-0.003543110331520438,0.00072425976395607,0.001651213620789349,-0.18809685111045837,0.017462465912103653,0.1285923570394516,-0.0,2475.32421875,2439.802734375,2154.063232421875,2140.30517578125
1765176737.1845362,14012902332939303710,1673,28.648332595825195,28.8052921295166,53.78803634643555,53.791725158691406,0.024922190234065056,0.7316842079162598,0.08024274557828903,0.3748386800289154,119.84109497070312,15.17459487915039,30.805166244506836,-69.48261260986328,0.0,0.0,0.0,0.0,-6.664056854788214e-05,-9.180982306133956e-05,-6.943292100913823e-05,-9.015641990117729e-05,0.0006647765403613448,0.000664269202388823,0.0007340058800764382,0.0007342777098529041,-89.98706817626953,-96.7532730102539,-246.99729919433594,308.8288879394531,276.92218017578125,116.9720458984375,7.95919132232666,-465.1427307128906,0.3034944534301758,0.0022277040407061577,-0.0009470017394050956,0.0008325671660713851,-0.004295190796256065,0.0006465022452175617,0.002051952527835965,-0.28626489639282227,-0.0026422131340950727,0.16793003678321838,-0.0,2473.287841796875,2446.40185546875,2151.216796875,2148.5947265625
1765176738.2356687,14012902332939303710,1694,28.643918991088867,28.813955307006836,53.78778076171875,53.803592681884766,-0.17177312076091766,0.5343183875083923,0.04872679337859154,0.6929039359092712,105.04199981689453,12.948365211486816,28.833744049072266,-42.58006286621094,0.0,0.0,0.0,0.0,-7.166822615545243e-05,-7.975233893375844e-05,-7.516473851865157e-05,-7.803947664797306e-05,0.0006837817491032183,0.0006833134102635086,0.0007015023729763925,0.0007017514435574412,-91.02838134765625,-96.89881134033203,-245.91636657714844,309.59429931640625,276.3344421386719,117.9456787109375,7.9710516929626465,-466.70098876953125,0.3034820556640625,0.002329298760741949,-0.0011796121252700686,0.0008973791263997555,-0.0037829375360161066,0.0007796802674420178,0.0018288251012563705,-0.2898339033126831,0.011327652260661125,0.17637856304645538,-0.0,2470.33349609375,2449.43505859375,2152.614013671875,2155.984375
1765176739.2763379,14012902332939303710,1715,28.638294219970703,28.819759368896484,53.787925720214844,53.807010650634766,-0.1601502150297165,0.7398425936698914,0.06146728992462158,0.5730985999107361,104.69331359863281,23.824718475341797,26.191768646240234,-44.940406799316406,0.0,0.0,0.0,0.0,-7.507344707846642e-05,-7.794287375872955e-05,-7.862857455620542e-05,-7.606393046444282e-05,0.0006876506377011538,0.0006872115191072226,0.0006975529249757528,0.000697785522788763,-91.4003677368164,-97.25467681884766,-246.38417053222656,310.2888488769531,275.9574890136719,118.02214813232422,7.875497817993164,-467.0677185058594,0.3034791946411133,0.002185481833294034,-0.0010165164712816477,0.000861818203702569,-0.004233520478010178,0.0006823095609433949,0.0020817916374653578,-0.32555797696113586,0.007804180029779673,0.19715411961078644,-0.0,2469.46875,2449.399658203125,2152.807373046875,2160.00634765625
1765176740.28247,14012902332939303710,1735,28.6374568939209,28.812620162963867,53.787113189697266,53.80642318725586,-0.16227363049983978,0.49564987421035767,0.05543231591582298,0.6808339953422546,106.98660278320312,8.066744804382324,28.310712814331055,-38.81155776977539,0.0,0.0,0.0,0.0,-7.302648009499535e-05,-7.386686775134876e-05,-7.670171180507168e-05,-7.202569395303726e-05,0.0006907517090439796,0.0006903508910909295,0.0006994501454755664,0.0006996646989136934,-91.67827606201172,-97.57866668701172,-246.44459533691406,309.6889343261719,275.94097900390625,118.43230438232422,8.138628959655762,-466.0634765625,0.3034820556640625,0.002186617348343134,-0.0010320352157577872,0.0008881955873221159,-0.004246218129992485,0.000711233529727906,0.0021005230955779552,-0.31859537959098816,0.008408710360527039,0.19602461159229279,-0.0,2468.858642578125,2449.08056640625,2152.58837890625,2157.704833984375
1765176741.3305182,14012902332939303710,1756,28.639751434326172,28.809823989868164,53.786293029785156,53.802757263183594,-0.14048068225383759,0.5131959915161133,0.05297362431883812,0.65781170129776,110.48019409179688,11.33903980255127,29.16901969909668,-44.22962188720703,0.0,0.0,0.0,0.0,-7.399096648441628e-05,-8.106733002932742e-05,-7.747513882350177e-05,-7.935525354696438e-05,0.0006796586094424129,0.0006791885243728757,0.0007063629454933107,0.0007066142279654741,-90.55408477783203,-96.4508285522461,-246.7347869873047,308.7154846191406,275.9100646972656,117.85807037353516,8.060184478759766,-466.0543518066406,0.3034820556640625,0.0022265787702053785,-0.0010365217458456755,0.0008618313586339355,-0.004247868899255991,0.0007109358557499945,0.0020799622870981693,-0.3147963285446167,0.004520904738456011,0.18969883024692535,-0.0,2469.498046875,2448.841552734375,2151.682373046875,2155.261474609375
1765176742.3348413,14012902332939303710,1776,28.640901565551758,28.812807083129883,53.78654098510742,53.80381393432617,-0.1580267995595932,0.524371862411499,0.04202127084136009,0.6712227463722229,107.57669067382812,14.738738059997559,28.09613609313965,-43.80046844482422,0.0,0.0,0.0,0.0,-7.446361996699125e-05,-8.120582060655579e-05,-7.795212150085717e-05,-7.947137055452913e-05,0.0006794207729399204,0.0006789306062273681,0.0007047242252156138,0.0007049852283671498,-90.5208969116211,-96.41925048828125,-246.56304931640625,308.8450927734375,275.8554992675781,117.85055541992188,8.108976364135742,-466.0663146972656,0.3034782409667969,0.0022536753676831722,-0.0010590418241918087,0.0008634892292320728,-0.004171272739768028,0.0007226072484627366,0.0020323479548096657,-0.31451961398124695,0.006424951832741499,0.18877936899662018,-0.0,2469.595458984375,2449.292236328125,2151.780029296875,2156.12109375
1765176743.3825948,14012902332939303710,1797,28.640607833862305,28.811752319335938,53.786949157714844,53.80403137207031,-0.13299286365509033,0.5397945642471313,0.05207955464720726,0.6622820496559143,108.8775634765625,10.795892715454102,28.39118003845215,-42.499595642089844,0.0,0.0,0.0,0.0,-7.673235813854262e-05,-8.164932660292834e-05,-8.025373972486705e-05,-7.984256808413193e-05,0.0006854424718767405,0.0006849573692306876,0.0006999709294177592,0.0007002301281318069,-90.27188110351562,-96.9759750366211,-246.25257873535156,308.4739990234375,275.81298828125,117.63700103759766,8.000293731689453,-466.34478759765625,0.30347633361816406,0.002226361772045493,-0.0010500866919755936,0.0008684390340931714,-0.004201697185635567,0.0007262987783178687,0.002061039675027132,-0.3132357597351074,0.0067931306548416615,0.18951156735420227,-0.0,2469.70556640625,2449.09619140625,2152.1337890625,2156.041259765625
1765176744.4336834,14012902332939303710,1818,28.64063835144043,28.81113052368164,53.78677749633789,53.803565979003906,-0.12136995047330856,0.5325302481651306,0.04917382821440697,0.6575881838798523,109.9571533203125,10.822714805603027,28.49846839904785,-43.545658111572266,0.0,0.0,0.0,0.0,-7.707824261160567e-05,-8.255420107161626e-05,-8.057321974774823e-05,-8.075494406512007e-05,0.0006839963025413454,0.0006835045060142875,0.0007019583135843277,0.0007022212957963347,-90.1108627319336,-96.81503295898438,-246.26544189453125,308.1440734863281,275.7361755371094,117.54457092285156,7.965732097625732,-466.15716552734375,0.30347251892089844,0.0022224534768611193,-0.001040962408296764,0.0008670575334690511,-0.004225530195981264,0.0007226700545288622,0.0020719270687550306,-0.3132009208202362,0.005922135431319475,0.18932805955410004,-0.0,2469.74072265625,2448.986328125,2151.966064453125,2155.69140625
1765176745.4736319,14012902332939303710,1839,28.643238067626953,28.804237365722656,53.786415100097656,53.79376220703125,0.0,0.0,0.0,0.0,-245.75067138671875,75.80592346191406,-47.99812316894531,205.34991455078125,0.0,0.0,0.0,0.0,-0.00010793959518196061,-6.395759555744007e-05,-0.00011285926302662119,-6.197181210154667e-05,0.0005791087751276791,0.0005787463742308319,0.00036152906250208616,0.0003616891335695982,-78.3276138305664,-86.22603607177734,-222.994140625,339.0447692871094,272.8082275390625,119.38675689697266,5.37004280090332,-461.36334228515625,0.3034934997558594,0.0026067050639539957,-0.003747697453945875,0.00018783799896482378,0.0011627839412540197,0.0006010981742292643,-0.0011767963878810406,-0.14391623437404633,0.05511587858200073,0.10721223056316376,-0.0,2444.513427734375,2443.73486328125,2142.291015625,2159.59716796875
1765176746.485926,14012902332939303710,1859,28.64017105102539,28.814252853393555,53.78620910644531,53.80196762084961,-0.17121432721614838,0.7579475045204163,0.01452863123267889,0.5757808089256287,108.11312866210938,23.52297019958496,28.230247497558594,-50.27800369262695,0.0,0.0,0.0,0.0,-7.651095074834302e-05,-8.385560067836195e-05,-7.9857993114274e-05,-8.205424819607288e-05,0.0006735463975928724,0.0006730539607815444,0.0006990428082644939,0.0006993032875470817,-89.03156280517578,-95.75483703613281,-245.8215789794922,308.31201171875,275.7858581542969,117.52083587646484,8.022954940795898,-466.18316650390625,0.3034696578979492,0.0022695395164191723,-0.0010843529598787427,0.0008285352378152311,-0.00411875918507576,0.0007096300832927227,0.001999259227886796,-0.31375765800476074,0.0033186222426593304,0.1864522248506546,-0.0,2469.46484375,2448.61572265625,2151.093017578125,2156.09716796875
1765176747.526528,14012902332939303710,1880,28.639934539794922,28.812715530395508,53.78707504272461,53.8050537109375,-0.17311422526836395,0.5505234003067017,0.038444992154836655,0.6797164082527161,106.6043930053711,12.77402114868164,27.318296432495117,-40.71592712402344,0.0,0.0,0.0,0.0,-7.624766294611618e-05,-7.991142774699256e-05,-7.980834925547242e-05,-7.810062379576266e-05,0.0006836867542006075,0.0006832060171291232,0.0006973837735131383,0.0006976394797675312,-90.02754974365234,-96.74337005615234,-245.75144958496094,308.3500671386719,275.6302185058594,117.71607208251953,8.122628211975098,-465.71026611328125,0.303466796875,0.0022495121229439974,-0.0010757199488580227,0.0008658388978801668,-0.004125920590013266,0.0007314084796234965,0.002017171820625663,-0.31386256217956543,0.0078522814437747,0.18950490653514862,-0.0,2469.192138671875,2449.2900390625,2152.167724609375,2156.864013671875
1765176748.579559,14012902332939303710,1901,28.64114761352539,28.81153678894043,53.78728103637695,53.80384826660156,-0.13455748558044434,0.5405768752098083,0.05029141530394554,0.6569176316261292,109.07872772216797,10.581315994262695,28.431411743164062,-43.14332580566406,0.0,0.0,0.0,0.0,-7.739084685454145e-05,-8.229240484070033e-05,-8.089615585049614e-05,-8.047869050642475e-05,0.0006834209780208766,0.0006829298799857497,0.0007006831583566964,0.0007009455002844334,-89.98529815673828,-96.71155548095703,-245.8941650390625,307.8330993652344,275.4935607910156,117.58935546875,8.021113395690918,-465.525634765625,0.3034648895263672,0.002250220626592636,-0.0010772576788440347,0.0008834170876070857,-0.004081379622220993,0.0007452679565176368,0.0019936489406973124,-0.305301696062088,0.0076764607802033424,0.18540988862514496,-0.0,2469.687744140625,2449.07958984375,2152.31005859375,2155.89111328125
1765176749.5813487,14012902332939303710,1921,28.640024185180664,28.81171226501465,53.786861419677734,53.804325103759766,-0.14550982415676117,0.5544349551200867,0.04179775342345238,0.6674229502677917,108.42158508300781,13.102592468261719,27.92179298400879,-41.98997497558594,0.0,0.0,0.0,0.0,-7.697194087086245e-05,-8.14781742519699e-05,-8.049085590755567e-05,-7.966862904140726e-05,0.0006828780169598758,0.0006823894800618291,0.0007004960789345205,0.0007007566164247692,-89.89917755126953,-96.60688781738281,-245.75228881835938,307.7781066894531,275.42535400390625,117.51746368408203,8.051960945129395,-465.3477783203125,0.30346107482910156,0.0022362442687153816,-0.0010561438975855708,0.0008685127249918878,-0.004174294415861368,0.0007272048387676477,0.0020427159033715725,-0.3136204183101654,0.0067309788428246975,0.18937841057777405,-0.0,2469.373046875,2449.22705078125,2152.000732421875,2156.2763671875
1765176750.5815241,14012902332939303710,1941,28.64037322998047,28.815792083740234,53.78678512573242,53.80303192138672,-0.16294418275356293,0.7404013872146606,0.026822088286280632,0.55655837059021,107.1274185180664,22.939590454101562,27.546283721923828,-49.459922790527344,0.0,0.0,0.0,0.0,-7.76945598772727e-05,-8.384257671423256e-05,-8.109745976980776e-05,-8.200573938665912e-05,0.0006794760120101273,0.0006789875915274024,0.0006995347794145346,0.0006997936288826168,-89.53360748291016,-96.24368286132812,-245.5317840576172,307.8919982910156,275.337158203125,117.37306213378906,7.900104999542236,-465.6009216308594,0.30346107482910156,0.002231859602034092,-0.0010466249659657478,0.0008347028633579612,-0.004214202053844929,0.0006966940127313137,0.0020577614195644855,-0.3187178671360016,0.004033699631690979,0.1905849575996399,-0.0,2469.484619140625,2448.734375,2151.4931640625,2156.790771484375
1765176751.622354,14012902332939303710,1962,28.64352035522461,28.80397605895996,53.78590393066406,53.79294204711914,-1.9351019859313965,0.26028603315353394,-0.4260241687297821,1.39877188205719,-243.00811767578125,73.6400375366211,-47.9713020324707,204.47817993164062,0.0,0.0,0.0,0.0,-0.00010390151146566495,-5.7435245253145695e-05,-0.0001089435609173961,-5.543487714021467e-05,0.0005853096954524517,0.0005849971785210073,0.00035691846278496087,0.00035705295158550143,-78.82035064697266,-85.82136535644531,-223.09146118164062,338.7847900390625,272.56683349609375,128.92922973632812,5.6489973068237305,-461.2070617675781,0.3034820556640625,0.002618097234517336,-0.003755022771656513,0.00020107625459786505,0.0011080652475357056,0.0006255626794882119,-0.0011255021672695875,-0.14581182599067688,0.05541903153061867,0.11007554829120636,-0.0,2444.51806640625,2443.60107421875,2142.187255859375,2159.1240234375
1765176752.6315496,14012902332939303710,1982,28.64044189453125,28.812049865722656,53.78669738769531,53.80449295043945,-0.15679745376110077,0.5628167986869812,0.029727814719080925,0.6739049553871155,107.7175064086914,14.182177543640137,27.532873153686523,-41.976566314697266,0.0,0.0,0.0,0.0,-7.613605703227222e-05,-8.094608347164467e-05,-7.964726682985201e-05,-7.914915477158502e-05,0.0006796286907047033,0.0006791389896534383,0.0006998894969001412,0.0007001500343903899,-89.48368835449219,-96.16631317138672,-245.4800262451172,307.5606994628906,275.2362060546875,117.35070037841797,8.211564064025879,-464.9669494628906,0.30345630645751953,0.002247635507956147,-0.001063128816895187,0.000855412392411381,-0.004174490459263325,0.0007224849541671574,0.002038229489699006,-0.3162158131599426,0.006070662755519152,0.18961244821548462,-0.0,2469.27734375,2449.41064453125,2151.8427734375,2156.386962890625
1765176753.636978,14012902332939303710,2002,28.64094352722168,28.811931610107422,53.78655242919922,53.80400085449219,-0.14785675704479218,0.5663930773735046,0.036209817975759506,0.6759166121482849,109.06532287597656,14.933196067810059,27.693805694580078,-42.40571975708008,0.0,0.0,0.0,0.0,-7.660834671696648e-05,-8.248587255366147e-05,-8.009411976672709e-05,-8.072081254795194e-05,0.0006774968933314085,0.0006769979954697192,0.0007019888143986464,0.0007022544159553945,-89.24227142333984,-95.94857788085938,-245.50503540039062,307.2184753417969,275.1313781738281,117.30645751953125,8.073768615722656,-464.7674865722656,0.3034553527832031,0.0022522062063217163,-0.001063579460605979,0.0008590806974098086,-0.004161009564995766,0.0007263018051162362,0.002028465736657381,-0.3142930269241333,0.005510496906936169,0.18825174868106842,-0.0,2469.431884765625,2449.4365234375,2151.77685546875,2156.07861328125
1765176754.6835747,14012902332939303710,2023,28.640533447265625,28.81302833557129,53.7866096496582,53.804405212402344,-0.15925614535808563,0.5225837230682373,0.03956257924437523,0.6736814379692078,106.62450408935547,14.618038177490234,28.09613609313965,-42.6739387512207,0.0,0.0,0.0,0.0,-7.650335464859381e-05,-8.190784865291789e-05,-8.002187678357586e-05,-8.013362094061449e-05,0.0006825840100646019,0.0006820898270234466,0.0007045135134831071,0.0007047769031487405,-89.71443176269531,-96.43761444091797,-245.54202270507812,307.6130065917969,274.9675598144531,117.38636779785156,7.9805474281311035,-464.3222961425781,0.3034534454345703,0.002240682253614068,-0.001052204635925591,0.0008695556898601353,-0.004191383253782988,0.0007213091012090445,0.002048495225608349,-0.31573915481567383,0.006623320281505585,0.1904033124446869,-0.0,2469.172607421875,2449.3056640625,2151.817138671875,2156.40234375
1765176755.7295983,14012902332939303710,2044,28.641159057617188,28.8117618560791,53.78728485107422,53.80411148071289,-0.12092291563749313,0.5418062210083008,0.0511854849755764,0.6526708006858826,109.01167297363281,12.016297340393066,27.59992790222168,-42.566650390625,0.0,0.0,0.0,0.0,-7.72855564719066e-05,-8.211952081182972e-05,-8.078572136582807e-05,-8.028746378840879e-05,0.0006842504953965545,0.00068375637056306,0.0007029211265034974,0.0007031848072074354,-89.86102294921875,-96.56800842285156,-245.43508911132812,306.9049377441406,274.83636474609375,117.31552124023438,8.006796836853027,-464.3674011230469,0.3034496307373047,0.0022295438684523106,-0.0010450566187500954,0.000867048860527575,-0.00419584522023797,0.0007197181112132967,0.0020525590516626835,-0.312858521938324,0.006346640642732382,0.1888584941625595,-0.0,2469.658935546875,2449.13427734375,2152.227294921875,2156.0654296875
1765176756.7337933,14012902332939303710,2064,28.640151977539062,28.812793731689453,53.78679275512695,53.80503845214844,-0.16003845632076263,0.5612521767616272,0.02861022762954235,0.6725638508796692,107.32858276367188,14.718619346618652,26.92937469482422,-41.064613342285156,0.0,0.0,0.0,0.0,-7.63240095693618e-05,-8.066702866926789e-05,-7.984906551428139e-05,-7.885983359301463e-05,0.0006800260161980987,0.0006795363733544946,0.0007011184352450073,0.000701378914527595,-89.4011001586914,-96.1017074584961,-245.21958923339844,307.059814453125,274.8179626464844,117.31830596923828,8.180131912231445,-464.3276062011719,0.3034486770629883,0.002231081249192357,-0.0010413199197500944,0.0008538863039575517,-0.0042310310527682304,0.000711191853042692,0.002068525878712535,-0.3203943967819214,0.005730291362851858,0.1919778436422348,-0.0,2469.09375,2449.474365234375,2151.85888671875,2156.7763671875
1765176757.7794244,14012902332939303710,2085,28.641321182250977,28.813201904296875,53.78738021850586,53.80514144897461,-0.14260409772396088,0.5631520748138428,0.04827975854277611,0.6732344031333923,107.1877670288086,13.0958833694458,27.50605010986328,-40.85003662109375,0.0,0.0,0.0,0.0,-7.679557893425226e-05,-8.11001009424217e-05,-8.03366128820926e-05,-7.92861173977144e-05,0.0006828766781836748,0.0006823891890235245,0.0006995985750108957,0.0006998581811785698,-89.66366577148438,-96.33212280273438,-245.08885192871094,307.08306884765625,274.7021484375,117.1320571899414,8.137028694152832,-464.1648864746094,0.30344390869140625,0.0022494117729365826,-0.0010733582312241197,0.0008727479143999517,-0.004107802640646696,0.0007341605378314853,0.002006086055189371,-0.31172919273376465,0.007669538725167513,0.18811585009098053,-0.0,2469.472412109375,2449.614990234375,2152.4072265625,2156.88037109375
1765176758.8324645,14012902332939303710,2106,28.641019821166992,28.812253952026367,53.7869758605957,53.80451202392578,-0.140145406126976,0.560581624507904,0.036209817975759506,0.6678699851036072,108.52216339111328,13.585386276245117,27.465816497802734,-41.74857711791992,0.0,0.0,0.0,0.0,-7.661830022698268e-05,-8.155401883414015e-05,-8.012217585928738e-05,-7.974608888616785e-05,0.0006805905140936375,0.0006800981936976314,0.0007018076721578836,0.0007020698976702988,-89.40258026123047,-96.0927734375,-245.1117401123047,306.7440490722656,274.6217346191406,117.16165924072266,8.150274276733398,-464.0140075683594,0.30344200134277344,0.0022411032114177942,-0.001055950648151338,0.0008642144966870546,-0.004171609878540039,0.0007235607481561601,0.0020375950261950493,-0.3144438862800598,0.0062121981754899025,0.18905389308929443,-0.0,2469.40283203125,2449.42626953125,2152.0078125,2156.380859375
1765176759.8795216,14012902332939303710,2127,28.64092445373535,28.812891006469727,53.787139892578125,53.805091857910156,-0.14863906800746918,0.5624815225601196,0.038892026990652084,0.6759166121482849,107.63703155517578,13.45798110961914,27.62674903869629,-40.79639434814453,0.0,0.0,0.0,0.0,-7.648473547305912e-05,-8.084749424597248e-05,-8.001580135896802e-05,-7.903742516646162e-05,0.0006812280043959618,0.0006807397585362196,0.0006999626639299095,0.0007002223865129054,-89.43519592285156,-96.1244888305664,-244.92771911621094,306.8465881347656,274.5290222167969,117.1793212890625,8.158761978149414,-463.8970642089844,0.30344104766845703,0.002249782904982567,-0.0010683753062039614,0.0008631387609057128,-0.004137614741921425,0.0007261571008712053,0.002019355306401849,-0.3146466314792633,0.006969754584133625,0.18913257122039795,-0.0,2469.3154296875,2449.5234375,2152.197509765625,2156.8076171875
1765176760.881604,14012902332939303710,2147,28.641185760498047,28.811891555786133,53.7870979309082,53.804161071777344,-0.14293937385082245,0.5443766713142395,0.044479962438344955,0.6613879799842834,108.61605834960938,12.163819313049316,28.257068634033203,-42.11067581176758,0.0,0.0,0.0,0.0,-7.72247658460401e-05,-8.217340655392036e-05,-8.073719072854146e-05,-8.036952931433916e-05,0.0006831745849922299,0.000682682148180902,0.0007025697850622237,0.0007028325344435871,-89.60037994384766,-96.30256652832031,-244.9583282470703,306.3999938964844,274.3515319824219,117.1132583618164,7.903521537780762,-463.5857849121094,0.3034400939941406,0.0022368805948644876,-0.0010536288609728217,0.0008696131408214569,-0.00418065907433629,0.000725232413969934,0.0020448819268494844,-0.3129916489124298,0.00661469018086791,0.18910810351371765,-0.0,2469.40673828125,2449.1669921875,2152.03564453125,2156.060302734375
1765176761.8825524,14012902332939303710,2167,28.641258239746094,28.811397552490234,53.787044525146484,53.80378723144531,-0.14025716483592987,0.5419179797172546,0.04224478825926781,0.656247079372406,108.61605072021484,11.52679443359375,28.09613609313965,-42.767818450927734,0.0,0.0,0.0,0.0,-7.695245585637167e-05,-8.307872485602275e-05,-8.043675916269422e-05,-8.129812340484932e-05,0.0006822458817623556,0.0006817501853220165,0.0007064935634844005,0.0007067580008879304,-89.47850799560547,-96.17774200439453,-245.10398864746094,306.64678955078125,274.2940979003906,117.00222778320312,7.922565937042236,-463.2076721191406,0.3034381866455078,0.002246547257527709,-0.0010605858406051993,0.0008763833320699632,-0.0041466159746050835,0.0007267147302627563,0.002024261513724923,-0.31006914377212524,0.006547250784933567,0.18747997283935547,-0.0,2469.40771484375,2449.056396484375,2151.951904296875,2155.8447265625
1765176762.9212618,14012902332939303710,2188,28.64388656616211,28.804643630981445,53.786075592041016,53.79344177246094,0.0,0.0,0.0,0.0,-240.25885009765625,73.09019470214844,-47.032527923583984,201.3131866455078,0.0,0.0,0.0,0.0,-0.00010445390944369137,-5.92783690080978e-05,-0.00010948607086902484,-5.731737837777473e-05,0.0005850025336258113,0.0005846791318617761,0.0003607925318647176,0.0003609328414313495,-78.50392150878906,-85.47578430175781,-222.51695251464844,337.2207336425781,271.48876953125,128.58416748046875,5.57450532913208,-459.28857421875,0.30345821380615234,0.0026357080787420273,-0.003752689575776458,0.00020161032443866134,0.0010728074703365564,0.0006162110948935151,-0.001120651257224381,-0.14781251549720764,0.05426648631691933,0.11041324585676193,-0.0,2444.479248046875,2443.6572265625,2142.322998046875,2159.291015625
1765176763.9345665,14012902332939303710,2208,28.641386032104492,28.812355041503906,53.786956787109375,53.80449676513672,-0.1443922370672226,0.5473941564559937,0.04179775342345238,0.662505567073822,108.54899597167969,12.485684394836426,27.92179298400879,-41.94974136352539,0.0,0.0,0.0,0.0,-7.794096018187702e-05,-8.157120464602485e-05,-8.148079359671101e-05,-7.973601168487221e-05,0.0006836680113337934,0.0006831717328168452,0.0006992902490310371,0.0006995547446422279,-89.58735656738281,-95.36603546142578,-245.3151092529297,306.48583984375,274.0801086425781,117.00119018554688,7.861876010894775,-463.3403625488281,0.3034343719482422,0.0022390622179955244,-0.001065765623934567,0.0008615813567303121,-0.0041740657761693,0.0007283777231350541,0.002045043744146824,-0.3145003914833069,0.006227254401892424,0.18939431011676788,-0.0,2469.34521484375,2449.375,2151.9794921875,2156.31396484375
1765176764.9347875,14012902332939303710,2230,28.64190101623535,28.813283920288086,53.7873649597168,53.8050537109375,-0.15098600089550018,0.5677341818809509,0.04045664891600609,0.6803869605064392,107.0268325805664,13.129410743713379,27.68039321899414,-41.03779220581055,0.0,0.0,0.0,0.0,-7.635482324985787e-05,-8.08892073109746e-05,-7.988408469827846e-05,-7.908145198598504e-05,0.000681227829772979,0.0006807413301430643,0.0006998070748522878,0.0007000658079050481,-89.29473876953125,-95.95167541503906,-244.53067016601562,306.37518310546875,274.09368896484375,116.88044738769531,8.156298637390137,-463.1748962402344,0.30342864990234375,0.0022645953577011824,-0.0010902294889092445,0.0008716108277440071,-0.004064701497554779,0.000738476519472897,0.001981200883165002,-0.31000569462776184,0.007742342539131641,0.1867510825395584,-0.0,2469.404296875,2449.58154296875,2152.29052734375,2156.772705078125
1765176765.9756033,14012902332939303710,2251,28.641965866088867,28.813535690307617,53.787391662597656,53.805267333984375,-0.14618037641048431,0.5603581070899963,0.046268101781606674,0.667199432849884,107.50292205810547,12.405214309692383,27.318296432495117,-41.84245300292969,0.0,0.0,0.0,0.0,-7.783732144162059e-05,-8.101662388071418e-05,-8.140151476254687e-05,-7.917793118394911e-05,0.0006840670830570161,0.0006835749372839928,0.0006983323837630451,0.0006985941436141729,-89.54959869384766,-95.3510513305664,-245.13766479492188,306.444091796875,273.8102111816406,116.98284912109375,7.957880973815918,-463.1155700683594,0.30342864990234375,0.002257184125483036,-0.0010929255513474345,0.0008718607132323086,-0.0040739779360592365,0.0007415902800858021,0.0019922126084566116,-0.310467004776001,0.007635976187884808,0.18732401728630066,-0.0,2469.441162109375,2449.68310546875,2152.350341796875,2156.9287109375
1765176766.9760823,14012902332939303710,2271,28.64275550842285,28.812192916870117,53.7874870300293,53.80449295043945,-0.1829489916563034,0.518113374710083,0.04224478825926781,0.6929039359092712,106.4300537109375,6.256254196166992,29.7188720703125,-40.64887237548828,0.0,0.0,0.0,0.0,-7.40889590815641e-05,-7.643646677024662e-05,-7.771587115712464e-05,-7.462450594175607e-05,0.0006854006205685437,0.000684978615026921,0.0006943335756659508,0.0006945585482753813,-89.6477279663086,-96.29725646972656,-244.0645751953125,306.5924987792969,274.0521545410156,117.12525177001953,8.351029396057129,-462.51025390625,0.30342769622802734,0.0022995357867330313,-0.001174876349978149,0.0008977187681011856,-0.003847443964332342,0.0007822538609616458,0.0018824207363650203,-0.2931407690048218,0.01043599285185337,0.18113331496715546,-0.0,2469.251953125,2449.055908203125,2152.49658203125,2156.03515625
1765176768.027324,14012902332939303710,2292,28.6412410736084,28.818727493286133,53.786563873291016,53.80457305908203,-0.17635522782802582,0.7248669266700745,0.02771615795791149,0.5965679287910461,105.4376220703125,29.732282638549805,26.164945602416992,-47.126407623291016,0.0,0.0,0.0,0.0,-7.762829773128033e-05,-8.276990411104634e-05,-8.110407361527905e-05,-8.096721285255626e-05,0.0006785152363590896,0.0006780222174711525,0.0007008060929365456,0.0007010667468421161,-88.93791961669922,-95.6004409790039,-244.2302703857422,306.1319274902344,273.728759765625,116.6950912475586,7.94111967086792,-463.0079345703125,0.3034229278564453,0.0022397066932171583,-0.0010510077700018883,0.0008348945411853492,-0.004208743572235107,0.0006945851491764188,0.0020525986328721046,-0.32403790950775146,0.004312488716095686,0.19298335909843445,-0.0,2469.026123046875,2449.51171875,2151.4267578125,2157.944580078125
1765176769.0305023,14012902332939303710,2312,28.642301559448242,28.8110408782959,53.78722381591797,53.803504943847656,-0.12472271919250488,0.512637197971344,0.05386769399046898,0.6566941142082214,109.56822204589844,9.44808292388916,28.042491912841797,-42.928749084472656,0.0,0.0,0.0,0.0,-7.397787703666836e-05,-7.904852827778086e-05,-7.752303645247594e-05,-7.726429612375796e-05,0.0006861097062937915,0.0006856619729660451,0.0007063076482154429,0.0007065473473630846,-89.66527557373047,-96.3446273803711,-244.5605010986328,305.9247131347656,273.8855895996094,117.03120422363281,8.163368225097656,-461.7545471191406,0.3034229278564453,0.002226883778348565,-0.0010581908281892538,0.0008798104827292264,-0.00417860085144639,0.0007206446025520563,0.002053159987553954,-0.3081750273704529,0.005697497166693211,0.18761548399925232,-0.0,2469.554443359375,2448.944091796875,2152.1181640625,2155.34521484375
1765176770.072501,14012902332939303710,2333,28.644392013549805,28.80340003967285,53.78618621826172,53.79301834106445,-1.956559658050537,0.31281259655952454,-0.41171905398368835,1.3679264783859253,-243.6049041748047,73.66015625,-47.7567253112793,204.66595458984375,0.0,0.0,0.0,0.0,-0.00010714203381212428,-6.118643068475649e-05,-0.00011220004671486095,-5.9238667745376006e-05,0.0005825465777888894,0.0005822113598696887,0.00035364599898457527,0.000353793177055195,-78.0830078125,-85.89762878417969,-220.7615966796875,336.96063232421875,270.69146728515625,128.29396057128906,5.482137203216553,-458.02490234375,0.30344581604003906,0.0026385567616671324,-0.003729739924892783,0.00020503193081822246,0.0010268914047628641,0.0006271893507800996,-0.0011016170028597116,-0.1504097580909729,0.05677679926156998,0.1118331179022789,-0.0,2444.24560546875,2443.51123046875,2142.16552734375,2158.982421875
1765176771.0849245,14012902332939303710,2354,28.641651153564453,28.812786102294922,53.78720474243164,53.805294036865234,-0.1446157544851303,0.4905089735984802,0.05252658948302269,0.6629526019096375,108.07959747314453,9.220094680786133,28.3509464263916,-42.98239517211914,0.0,0.0,0.0,0.0,-7.47626181691885e-05,-7.805554923834279e-05,-7.836167060304433e-05,-7.625753642059863e-05,0.0006863583694212139,0.0006859260611236095,0.0006999642355367541,0.0007001952035352588,-89.62794494628906,-96.31423950195312,-244.03041076660156,305.678955078125,273.6045837402344,117.04328918457031,8.08956527709961,-461.8506164550781,0.3034191131591797,0.0022233196068555117,-0.001067077275365591,0.0008780783973634243,-0.004166627302765846,0.0007257581455633044,0.0020528885070234537,-0.3119993507862091,0.006652859505265951,0.19036418199539185,-0.0,2469.10302734375,2449.217529296875,2152.302001953125,2156.332275390625
1765176772.1287813,14012902332939303710,2375,28.64156723022461,28.812366485595703,53.78715896606445,53.80459213256836,-0.14238058030605316,0.5600228309631348,0.04023313149809837,0.6642937064170837,107.98572540283203,14.061478614807129,27.465816497802734,-41.78881072998047,0.0,0.0,0.0,0.0,-7.680520502617583e-05,-8.181355951819569e-05,-8.031223842408508e-05,-8.000741945579648e-05,0.0006808515754528344,0.0006803577998653054,0.0007032884168438613,0.0007035513408482075,-89.05439758300781,-95.71878051757812,-244.14776611328125,305.2752990722656,273.3947448730469,116.63048553466797,8.001908302307129,-461.9422607421875,0.3034172058105469,0.0022380428854376078,-0.0010497142793610692,0.0008630487718619406,-0.004191483370959759,0.00071793666575104,0.0020474083721637726,-0.3156052529811859,0.006015230435878038,0.18974824249744415,-0.0,2469.2255859375,2449.422607421875,2152.02392578125,2156.349609375
1765176773.183694,14012902332939303710,2396,28.642452239990234,28.81292724609375,53.78725051879883,53.804664611816406,-0.1385807991027832,0.5504116415977478,0.04380941018462181,0.668764054775238,108.24723815917969,11.935831069946289,27.251239776611328,-41.802223205566406,0.0,0.0,0.0,0.0,-7.842396735213697e-05,-8.198342402465641e-05,-8.198127761716023e-05,-8.015008643269539e-05,0.0006854714592918754,0.000684974598698318,0.000699368305504322,0.0006996332085691392,-89.51287078857422,-95.2748794555664,-244.6373291015625,305.5917053222656,273.20989990234375,116.61833190917969,7.885899066925049,-462.0479431152344,0.30341529846191406,0.0022488099057227373,-0.0010823407210409641,0.0008758374606259167,-0.0041088140569627285,0.0007424282957799733,0.002012429293245077,-0.3097810447216034,0.0074342829175293446,0.18749479949474335,-0.0,2469.472412109375,2449.50634765625,2152.15869140625,2156.39208984375
1765176774.227293,14012902332939303710,2417,28.64221954345703,28.812461853027344,53.78722381591797,53.804447174072266,-0.13221055269241333,0.5485117435455322,0.045374032109975815,0.6589292883872986,108.54899597167969,13.598800659179688,27.157363891601562,-42.298431396484375,0.0,0.0,0.0,0.0,-7.738128624623641e-05,-8.276881271740422e-05,-8.089303446467966e-05,-8.097579120658338e-05,0.0006821580464020371,0.0006816620007157326,0.0007045017555356026,0.0007047663675621152,-89.13007354736328,-95.78732299804688,-244.06260681152344,304.9677734375,273.16241455078125,116.47122955322266,7.943697452545166,-461.7669677734375,0.30341339111328125,0.0022291545756161213,-0.0010417484445497394,0.0008689303649589419,-0.004209236241877079,0.0007186521543189883,0.002059257123619318,-0.31465843319892883,0.005949006415903568,0.1897711157798767,-0.0,2469.3779296875,2449.4111328125,2152.064208984375,2156.169189453125
1765176775.2837126,14012902332939303710,2438,28.642093658447266,28.813068389892578,53.78715133666992,53.804508209228516,-0.14472751319408417,0.4987791180610657,0.05297362431883812,0.6732344031333923,106.94637298583984,13.665854454040527,28.404590606689453,-42.325252532958984,0.0,0.0,0.0,0.0,-7.540929800597951e-05,-7.936965994304046e-05,-7.898076000856236e-05,-7.756776903988793e-05,0.000686058250721544,0.0006855906685814261,0.0007017807802185416,0.0007020306074991822,-89.48512268066406,-96.15939331054688,-243.80731201171875,305.0971374511719,273.1814270019531,116.78076171875,8.020742416381836,-461.30035400390625,0.30341053009033203,0.0022258602548390627,-0.0010506834369152784,0.0008710463880561292,-0.004209384322166443,0.000720218988135457,0.0020666727796196938,-0.31505873799324036,0.006655443925410509,0.19101722538471222,-0.0,2469.177490234375,2449.294677734375,2152.0703125,2156.297607421875
1765176776.2865527,14012902332939303710,2458,28.642438888549805,28.816423416137695,53.78730773925781,53.80339813232422,-0.13947486877441406,0.7525830864906311,0.03330409526824951,0.5574524402618408,107.50963592529297,24.240461349487305,27.237829208374023,-49.16488265991211,0.0,0.0,0.0,0.0,-7.76737360865809e-05,-8.414229523623362e-05,-8.106710447464138e-05,-8.230062667280436e-05,0.0006779328687116504,0.0006774415378458798,0.0007020422490313649,0.0007023023790679872,-88.66252899169922,-95.29605102539062,-243.71697998046875,305.1305847167969,273.0580139160156,116.27029418945312,7.923684120178223,-461.7718200683594,0.3034086227416992,0.002249098150059581,-0.0010631236946210265,0.0008415983174927533,-0.004140020813792944,0.0007029644912108779,0.0020144181326031685,-0.31483712792396545,0.004368190187960863,0.1880200356245041,-0.0,2469.57568359375,2449.00537109375,2151.737060546875,2156.945556640625
1765176777.3303967,14012902332939303710,2479,28.641674041748047,28.813066482543945,53.78696823120117,53.8054313659668,-0.2076476663351059,0.5067139863967896,0.03598630055785179,0.707209050655365,105.20964050292969,8.824468612670898,29.115375518798828,-39.2407112121582,0.0,0.0,0.0,0.0,-7.520966028096154e-05,-7.540786464232951e-05,-7.891271525295451e-05,-7.358269795076922e-05,0.0006882539018988609,0.0006878259009681642,0.0006911156815476716,0.0006913432735018432,-89.66167449951172,-95.42804718017578,-243.7967529296875,305.9803466796875,273.037109375,116.97284698486328,8.061110496520996,-461.141357421875,0.3034086227416992,0.0022883855272084475,-0.0011639093281701207,0.000879742088727653,-0.00394459068775177,0.0007675762171857059,0.0019388293148949742,-0.30367332696914673,0.009767567738890648,0.18650281429290771,-0.0,2468.59912109375,2449.26513671875,2152.123046875,2156.712890625
1765176778.3312125,14012902332939303710,2499,28.641700744628906,28.813026428222656,53.78739547729492,53.80562210083008,-0.2076476663351059,0.5150958895683289,0.0346451997756958,0.7058679461479187,103.48632049560547,9.870530128479004,28.3509464263916,-37.9666633605957,0.0,0.0,0.0,0.0,-7.439900218741968e-05,-7.540036313002929e-05,-7.808269583620131e-05,-7.35866415197961e-05,0.0006876825354993343,0.000687263032887131,0.0006942356121726334,0.0006944584893062711,-89.5542984008789,-96.21186828613281,-243.1561279296875,305.54571533203125,272.9564208984375,116.88008117675781,8.192564010620117,-460.786376953125,0.3034038543701172,0.0022957141045480967,-0.0011669312370941043,0.0008865365525707603,-0.003906994592398405,0.0007655193330720067,0.0019148435676470399,-0.3012973964214325,0.01055535115301609,0.18556742370128632,-0.0,2468.544189453125,2449.223388671875,2152.359619140625,2156.84228515625
1765176779.372363,14012902332939303710,2520,28.64286994934082,28.805233001708984,53.786624908447266,53.79543685913086,-1.9304081201553345,0.2909078896045685,-0.3840028941631317,1.312494158744812,-237.01339721679688,69.4625015258789,-45.262271881103516,196.1365203857422,0.0,0.0,0.0,0.0,-0.00010865860531339422,-6.155601295176893e-05,-0.0001137562285293825,-5.958099791314453e-05,0.0005846040439791977,0.0005842670216225088,0.0003487803041934967,0.0003489268710836768,-78.92440795898438,-85.0090103149414,-220.6892547607422,336.5768127441406,269.6241760253906,128.13177490234375,5.272935390472412,-456.9335021972656,0.3034248352050781,0.0026539762038737535,-0.0037622128147631884,0.00019607297144830227,0.0010704509913921356,0.000589193485211581,-0.001143255503848195,-0.14637762308120728,0.05528389289975166,0.10918226093053818,-0.0,2444.39404296875,2443.667236328125,2142.7724609375,2160.16943359375
1765176780.4279518,14012902332939303710,2542,28.64456558227539,28.811750411987305,53.78660583496094,53.80204772949219,-0.1527741402387619,0.5206838250160217,0.03643333539366722,0.6714462637901306,109.42071533203125,14.336408615112305,29.759105682373047,-44.75265121459961,0.0,0.0,0.0,0.0,-7.590567838633433e-05,-8.4913001046516e-05,-7.93214567238465e-05,-8.321739005623385e-05,0.0006761184195056558,0.0006756025832146406,0.0007092142477631569,0.0007094889879226685,-88.33891296386719,-95.05308532714844,-243.80502319335938,304.5060729980469,272.6859130859375,116.29524230957031,7.876318454742432,-460.4920654296875,0.3034038543701172,0.0022996095940470695,-0.001110200071707368,0.0008729147375561297,-0.004025069531053305,0.0007467132527381182,0.0019495264859870076,-0.301608145236969,0.005732075776904821,0.18139803409576416,-0.0,2469.54052734375,2449.0634765625,2151.412109375,2154.546875
1765176781.4281921,14012902332939303710,2562,28.642250061035156,28.81260871887207,53.7872200012207,53.80461120605469,-0.1354515552520752,0.5218014121055603,0.04895031079649925,0.6533413529396057,108.60263061523438,11.754781723022461,27.45240592956543,-42.08385467529297,0.0,0.0,0.0,0.0,-7.62817871873267e-05,-8.141640137182549e-05,-7.981970702530816e-05,-7.964023825479671e-05,0.0006835794192738831,0.0006831040373072028,0.0007088501006364822,0.000709103886038065,-89.07295989990234,-95.73904418945312,-243.76687622070312,304.5902404785156,272.60906982421875,116.40850830078125,7.9230523109436035,-460.2491455078125,0.30340003967285156,0.0022265135776251554,-0.0010455837473273277,0.0008820237708278,-0.0041900561191141605,0.0007158988737501204,0.002053101547062397,-0.3134629726409912,0.0058894529938697815,0.18982310593128204,-0.0,2469.17626953125,2449.360595703125,2152.0537109375,2156.33935546875
1765176782.4823775,14012902332939303710,2583,28.64307403564453,28.813753128051758,53.78708267211914,53.804588317871094,-0.14182178676128387,0.5269423127174377,0.043585892766714096,0.6734579205513,107.18106842041016,16.0865478515625,27.814504623413086,-42.59347152709961,0.0,0.0,0.0,0.0,-7.683777948841453e-05,-8.214118861360475e-05,-8.035391510929912e-05,-8.035405335249379e-05,0.0006810756749473512,0.0006805767770856619,0.00070428557228297,0.0007045513484627008,-88.80157470703125,-95.44418334960938,-243.43177795410156,304.2088623046875,272.5069580078125,116.22588348388672,7.9699320793151855,-460.4895324707031,0.30339813232421875,0.0022447812370955944,-0.001055991044268012,0.0008673909469507635,-0.004176197573542595,0.0007229844341054559,0.0020388776902109385,-0.31464684009552,0.006254998501390219,0.18940052390098572,-0.0,2469.25537109375,2449.531005859375,2151.9423828125,2156.33203125
1765176783.4835687,14012902332939303710,2603,28.64275550842285,28.81634521484375,53.78697967529297,53.80305099487305,-0.14249233901500702,0.7420777678489685,0.03285706043243408,0.5581229329109192,107.89185333251953,25.00489044189453,26.95619773864746,-49.20512008666992,0.0,0.0,0.0,0.0,-7.8423778177239e-05,-8.546336175641045e-05,-8.181020530173555e-05,-8.364701352547854e-05,0.0006785637815482914,0.0006780622061342001,0.0007051335996948183,0.0007053996087051928,-88.5318603515625,-95.1487808227539,-243.35574340820312,304.14178466796875,272.33709716796875,115.88482666015625,7.8358378410339355,-460.7578125,0.30339622497558594,0.002235930413007736,-0.001044943230226636,0.0008393925963900983,-0.004205531440675259,0.0006945997010916471,0.002049895701929927,-0.31736594438552856,0.0032247903291136026,0.18937678635120392,-0.0,2469.4521484375,2448.92822265625,2151.446044921875,2156.618408203125
1765176784.5234804,14012902332939303710,2624,28.644878387451172,28.80501937866211,53.78647994995117,53.79434585571289,0.0,0.0,0.0,0.0,-241.20433044433594,74.71292114257812,-48.31998825073242,203.31143188476562,0.0,0.0,0.0,0.0,-0.00011038786760764197,-6.598093750653788e-05,-0.00011537854879861698,-6.402998405974358e-05,0.0005820963415317237,0.0005817265482619405,0.0003568414249457419,0.00035700685111805797,-77.70095825195312,-85.50506591796875,-220.00306701660156,335.2159118652344,269.1668395996094,128.20252990722656,5.0846686363220215,-455.5456237792969,0.3034172058105469,0.0026393821462988853,-0.0037330216728150845,0.000200840353500098,0.0010408498346805573,0.0006152849528007209,-0.0011220464948564768,-0.14922891557216644,0.056561991572380066,0.11029012501239777,-0.0,2444.35107421875,2443.628662109375,2142.20849609375,2159.16259765625
1765176785.579545,14012902332939303710,2645,28.64295768737793,28.812442779541016,53.787654876708984,53.80495834350586,-0.13690441846847534,0.49833208322525024,0.053197141736745834,0.6457417607307434,107.97901916503906,7.4967756271362305,28.511878967285156,-43.867523193359375,0.0,0.0,0.0,0.0,-7.697023829678074e-05,-8.130514470394701e-05,-8.052384509937838e-05,-7.950184954097494e-05,0.0006856147665530443,0.000685154227539897,0.0007016378804109991,0.0007018839241936803,-89.1666030883789,-95.79983520507812,-243.09024047851562,304.1563720703125,272.1825866699219,116.15227508544922,7.952447891235352,-460.0464172363281,0.3033924102783203,0.002238585613667965,-0.001076398533768952,0.000883733737282455,-0.004117093980312347,0.0007345467456616461,0.0020209751091897488,-0.3084668815135956,0.007450568489730358,0.1882428377866745,-0.0,2469.163818359375,2449.185546875,2152.375732421875,2156.208984375
1765176786.6354704,14012902332939303710,2666,28.642942428588867,28.81220054626465,53.787498474121094,53.80483627319336,-0.14372168481349945,0.4947558045387268,0.04895031079649925,0.6602703928947449,107.79796600341797,7.630886077880859,28.163190841674805,-42.942161560058594,0.0,0.0,0.0,0.0,-7.467794057447463e-05,-7.841012848075479e-05,-7.825934881111607e-05,-7.660428673261777e-05,0.0006869567441754043,0.0006865244940854609,0.0007005982333794236,0.0007008291431702673,-89.27239990234375,-95.90182495117188,-242.94271850585938,304.1394958496094,272.28021240234375,116.33565521240234,8.150162696838379,-459.6535339355469,0.3033914566040039,0.0022309040650725365,-0.0010762548772618175,0.0008778326446190476,-0.00414727907627821,0.0007276956457644701,0.0020423976238816977,-0.30916741490364075,0.006725453771650791,0.18891595304012299,-0.0,2469.10986328125,2449.060302734375,2152.29736328125,2155.88525390625
1765176787.6748066,14012902332939303710,2687,28.64552879333496,28.80461311340332,53.786659240722656,53.794227600097656,0.0,0.0,0.0,0.0,-240.4600067138672,73.7741470336914,-47.4616813659668,203.80764770507812,0.0,0.0,0.0,0.0,-0.00011095883382949978,-6.598219624720514e-05,-0.00011596034892136231,-6.40165526419878e-05,0.0005837712669745088,0.0005833969917148352,0.0003544250503182411,0.00035459265927784145,-77.79730987548828,-85.56517028808594,-220.4582061767578,335.14898681640625,268.8437805175781,127.95793914794922,4.969033718109131,-455.220703125,0.30341148376464844,0.002642130246385932,-0.003729247720912099,0.00020220346050336957,0.0010125896660611033,0.0006216606125235558,-0.0011071051703765988,-0.15074656903743744,0.05663863196969032,0.11092276871204376,-0.0,2444.564453125,2443.6103515625,2142.48388671875,2159.148193359375
1765176788.7299426,14012902332939303710,2708,28.642925262451172,28.812726974487305,53.78755187988281,53.805233001708984,-0.14338640868663788,0.5003437399864197,0.05029141530394554,0.6587057709693909,107.56327819824219,7.778407573699951,28.257068634033203,-43.02262496948242,0.0,0.0,0.0,0.0,-7.513273158110678e-05,-7.855865260353312e-05,-7.8717312135268e-05,-7.674885273445398e-05,0.0006861938745714724,0.0006857604021206498,0.0007016297313384712,0.000701861223205924,-89.14054107666016,-95.76911163330078,-242.86102294921875,303.868408203125,272.0672912597656,116.25419616699219,8.103437423706055,-459.37322998046875,0.30338478088378906,0.0022291801869869232,-0.001075462787412107,0.0008849131991155446,-0.004130832385271788,0.0007301269215531647,0.002033824101090431,-0.30888283252716064,0.006824339274317026,0.18883682787418365,-0.0,2469.048828125,2449.190673828125,2152.37158203125,2156.162109375
1765176789.7327666,14012902332939303710,2728,28.643817901611328,28.813751220703125,53.78730010986328,53.80469512939453,-0.14640389382839203,0.48916786909103394,0.05766749009490013,0.6636231541633606,106.56414794921875,12.170524597167969,28.833744049072266,-44.5380744934082,0.0,0.0,0.0,0.0,-7.625494617968798e-05,-8.07844044174999e-05,-7.981874659890309e-05,-7.900541095295921e-05,0.000684603990521282,0.0006841346621513367,0.0007015643641352654,0.0007018145988695323,-88.96065521240234,-95.58924102783203,-242.77049255371094,303.7861328125,271.9075622558594,116.05814361572266,8.003132820129395,-459.44122314453125,0.30338382720947266,0.0022626996506005526,-0.001099695567972958,0.0008813315071165562,-0.004067102447152138,0.0007434405852109194,0.0019908465910702944,-0.3071475625038147,0.007664230186492205,0.18687663972377777,-0.0,2469.14208984375,2449.47705078125,2152.14892578125,2156.152587890625
