timestamp,session_uid,frame,suspension_pos_rl,suspension_pos_rr,suspension_pos_fl,suspension_pos_fr,suspension_vel_rl,suspension_vel_rr,suspension_vel_fl,suspension_vel_fr,suspension_acc_rl,suspension_acc_rr,suspension_acc_fl,suspension_acc_fr,wheel_speed_rl,wheel_speed_rr,wheel_speed_fl,wheel_speed_fr,wheel_slip_ratio_rl,wheel_slip_ratio_rr,wheel_slip_ratio_fl,wheel_slip_ratio_fr,wheel_slip_angle_rl,wheel_slip_angle_rr,wheel_slip_angle_fl,wheel_slip_angle_fr,wheel_lat_force_rl,wheel_lat_force_rr,wheel_lat_force_fl,wheel_lat_force_fr,wheel_long_force_rl,wheel_long_force_rr,wheel_long_force_fl,wheel_long_force_fr,height_of_cog,local_velocity_x,local_velocity_y,local_velocity_z,angular_velocity_x,angular_velocity_y,angular_velocity_z,angular_acceleration_x,angular_acceleration_y,angular_acceleration_z,front_wheels_angle,wheel_vert_force_rl,wheel_vert_force_rr,wheel_vert_force_fl,wheel_vert_force_fr
1767783196.7430868,6969619580540723221,0,31.207015991210938,31.553983688354492,53.665550231933594,53.55411911010742,0.7142272591590881,0.5330479145050049,0.14028511941432953,0.020091533660888672,34.035423278808594,-189.57943725585938,-11.821121215820312,-213.8042449951172,0.0,0.0,0.0,0.0,-0.0005789652350358665,-0.0005882643163204193,-0.000578802078962326,-0.0005886222934350371,-0.00017408502753823996,-0.00017729081446304917,0.0001481551880715415,0.00014870289305690676,141.16441345214844,-73.9826431274414,21.969451904296875,45.35354995727539,-149.0885009765625,-136.3548583984375,211.82833862304688,218.46742248535156,0.30111122131347656,0.0001495460601290688,-8.468550367979333e-05,2.5934674340533093e-05,0.0043962555937469006,-0.0018796990625560284,-0.0008883691043592989,0.5375041961669922,-0.05887399613857269,0.13230785727500916,-0.0,2444.64404296875,2517.51416015625,2024.29833984375,1977.0880126953125
1767783197.7479641,6969619580540723221,20,27.97977638244629,28.333337783813477,53.66522979736328,53.558998107910156,0.5039294958114624,0.33205321431159973,0.0943560004234314,-0.005516781937330961,-2.9491636753082275,-2.273679733276367,-0.7259259819984436,-0.21374911069869995,0.0,0.0,0.0,0.0,-0.0006806938326917589,-0.0006623293738812208,-0.0006811755010858178,-0.0006620252970606089,-0.00010429404937895015,-0.00010952792217722163,7.216310768853873e-05,7.441357593052089e-05,158.30538940429688,-99.92572784423828,41.152137756347656,34.359195709228516,-140.39849853515625,-129.96998596191406,217.5054931640625,223.23684692382812,0.3040008544921875,4.921773506794125e-05,0.0002578173589427024,0.0003011759545188397,0.0038083849940449,-0.0016051421407610178,-0.0007069826824590564,0.000860903353895992,-0.0001825888321036473,0.003439740277826786,-0.0,2431.6162109375,2505.439208984375,2023.277099609375,1978.0654296875
1767783198.805495,6969619580540723221,41,28.042266845703125,28.34589958190918,53.696449279785156,53.558876037597656,0.005088201258331537,0.006690042093396187,0.0005653556436300278,-0.007161172106862068,0.9805480241775513,0.880793035030365,-0.6279445886611938,-0.6667478084564209,0.0,0.0,0.0,0.0,-0.0006549206445924938,-0.0006642042426392436,-0.0006552631966769695,-0.0006654141470789909,-0.0001743018947308883,-0.00017953378846868873,0.00010224018478766084,0.00010449480032548308,160.45506286621094,-98.00757598876953,45.23004150390625,37.95486068725586,-141.58596801757812,-126.78202819824219,219.57569885253906,224.7861785888672,0.3039512634277344,-0.00021684860985260457,0.0004316175472922623,0.00012759286619257182,0.004108610562980175,-0.0017289994284510612,0.0005315231392160058,-0.0006380274426192045,-0.0002626607019919902,-0.00045102721196599305,-0.0,2440.24658203125,2505.124267578125,2042.6192626953125,1980.6595458984375
1767783199.8086486,6969619580540723221,61,27.21477699279785,28.55775260925293,53.640602111816406,53.740821838378906,6.6240763664245605,-6.460466384887695,-0.9630070924758911,3.508056402206421,-197.67694091796875,111.57279968261719,45.2613639831543,116.27552795410156,0.0,0.0,0.0,0.0,5.8547495427774265e-05,-9.00756785995327e-05,5.254624193185009e-05,-0.00010341954475734383,-0.00025803211610764265,-0.0002542011789046228,0.0005802839295938611,0.0005782809457741678,156.0024871826172,-110.47428131103516,-8.662955284118652,26.464309692382812,-71.77584838867188,-72.24474334716797,42.903472900390625,101.22908020019531,0.30409812927246094,-0.0005419956287369132,0.000699254684150219,-0.00011776507744798437,0.0032128156162798405,-0.002254511695355177,0.0004408449458424002,0.30315321683883667,-0.10662248730659485,0.21736443042755127,-0.015720877796411514,2296.7099609375,2537.4228515625,2003.0865478515625,2128.89306640625
1767783200.8455157,6969619580540723221,82,27.478376388549805,27.91724967956543,53.670082092285156,53.63185501098633,1.3193655014038086,-0.8520114421844482,0.8160029649734497,-1.153027057647705,158.1532745361328,-94.89197540283203,43.64583206176758,-180.82489013671875,0.0,0.0,0.0,0.0,-9.318623779108748e-05,-0.00015317524957936257,-9.079402661882341e-05,-0.00015564404020551592,-0.00029407392139546573,-0.00029488810105249286,-1.2562951269501355e-05,-1.2094204976165202e-05,196.61517333984375,-65.14900207519531,-6.1190185546875,27.052675247192383,-74.07876586914062,-86.63046264648438,-88.38192749023438,227.36685180664062,0.3043193817138672,-0.0016855706926435232,0.002851449651643634,0.0007838223245926201,0.0006034609978087246,0.0007901594508439302,-0.002457250375300646,-0.09407249093055725,0.0752774104475975,-0.16504672169685364,-0.0,2342.02978515625,2430.66259765625,2031.26416015625,2011.2796630859375
1767783201.9036021,6969619580540723221,103,27.50686264038086,27.882436752319336,53.650150299072266,53.57673645019531,0.3636563718318939,-0.07352926582098007,0.1521884799003601,-0.17745822668075562,-9.544660568237305,16.36745834350586,12.638655662536621,6.878509044647217,0.0,0.0,0.0,0.0,-7.674487278563902e-05,-5.0870254199253395e-05,-7.626667502336204e-05,-5.165768743609078e-05,-0.0002929933834820986,-0.00029332275153137743,-0.00017438374925404787,-0.00017422767996322364,201.27818298339844,-61.83274459838867,2.450052499771118,35.45609664916992,-56.762184143066406,-80.00508880615234,-70.21857452392578,234.08985900878906,0.30437469482421875,-0.0016939507331699133,0.002819964662194252,0.0002924932923633605,0.0025604625698179007,-0.0011150498175993562,0.0004751655214931816,0.02427743561565876,0.012208529748022556,0.029024315997958183,-0.0,2336.429443359375,2429.56787109375,2013.5439453125,1983.8170166015625
1767783202.9419975,6969619580540723221,124,30.918195724487305,32.68308639526367,53.584232330322266,52.982566833496094,8.510355949401855,-17.342388153076172,-0.7241972088813782,0.29976552724838257,-199.93064880371094,176.01722717285156,24.827342987060547,149.93174743652344,28.81686782836914,28.578052520751953,1.7475508451461792,1.7529706954956055,5.406128406524658,5.318038463592529,-0.006018545012921095,-0.0013109194114804268,-0.013277692720293999,-0.015722990036010742,0.0012939845910295844,-0.0014273682609200478,-78.53202056884766,192.96176147460938,-209.67735290527344,222.31570434570312,3848.164794921875,4067.454345703125,-804.8394775390625,147.90016174316406,0.3021259307861328,0.013325642794370651,0.011219327338039875,1.7375898361206055,0.007876229472458363,0.05332444980740547,0.019426021724939346,-0.1393486112356186,-0.24938639998435974,-0.2408098429441452,-0.06743607670068741,2573.9970703125,2836.13916015625,1925.103271484375,1589.528564453125
1767783203.9426253,6969619580540723221,144,31.960447311401367,32.48044967651367,53.29456329345703,53.464599609375,5.20927619934082,1.2793068885803223,-0.3923782408237457,0.11567004024982452,146.73974609375,84.49385070800781,-193.08827209472656,-226.1090545654297,29.38540267944336,29.218473434448242,9.629633903503418,9.781140327453613,2.012770175933838,1.9539302587509155,-0.004769011400640011,-0.004380855709314346,-0.0312500037252903,-0.03841433674097061,-0.0029904856346547604,-0.0001653138460824266,-11.378864288330078,313.6136169433594,198.96090698242188,139.0773468017578,4202.30712890625,4342.41552734375,587.8399658203125,571.8450317382812,0.3003082275390625,-0.19216391444206238,0.046237047761678696,9.828853607177734,-0.0017631256487220526,0.09109601378440857,0.005078764632344246,0.17439815402030945,0.13677223026752472,-0.11603928357362747,-0.0,2757.366455078125,2883.607666015625,1764.683349609375,1891.20654296875
1767783204.947197,6969619580540723221,164,34.62068176269531,34.14553451538086,52.74945068359375,54.158321380615234,-13.802124977111816,7.9821457862854,3.0325491428375244,-0.9656942486763,320.7156066894531,79.31783294677734,189.57057189941406,-199.5177459716797,29.150251388549805,28.88154411315918,19.236188888549805,19.205759048461914,0.513612687587738,0.5061983466148376,-0.0015258347848430276,-0.0009331562323495746,-0.07029998302459717,-0.07858794182538986,-0.000200181981199421,-0.006017300300300121,527.2169189453125,1076.3751220703125,-83.08668518066406,857.2454223632812,5025.41943359375,5409.81005859375,-153.6835479736328,-148.1126251220703,0.3003807067871094,-1.4570351839065552,0.06994079798460007,19.186155319213867,0.010576624423265457,-0.026192110031843185,-0.0071947467513382435,0.46256983280181885,-0.4462949335575104,0.25178152322769165,0.08001403510570526,3008.7958984375,3243.1494140625,1478.7884521484375,2341.093017578125
1767783205.9506235,6969619580540723221,184,36.14395523071289,32.667781829833984,53.798011779785156,53.19205093383789,5.261911392211914,-18.97450065612793,3.3520617485046387,-2.900036096572876,67.9593734741211,314.6966247558594,126.12962341308594,171.20924377441406,28.838314056396484,29.60175895690918,22.81656837463379,22.407957077026367,0.2604238986968994,0.31255626678466797,-0.00136960344389081,-0.0010373755358159542,0.022492388263344765,0.014627720229327679,0.01468283124268055,0.013404786586761475,-762.4125366210938,-103.21939849853516,-1706.96435546875,-1044.3875732421875,5505.93017578125,4301.20361328125,-183.54605102539062,-108.04193115234375,0.29943275451660156,0.013788840733468533,0.09966067224740982,22.63485336303711,0.008861633948981762,-0.2552737891674042,0.03594445064663887,-0.006213920656591654,-3.0117106437683105,0.09849858283996582,0.036531440913677216,3516.68505859375,2727.4296875,2197.321044921875,1603.098388671875
1767783206.9621131,6969619580540723221,204,31.142650604248047,30.833192825317383,54.27220916748047,54.45787048339844,13.489958763122559,13.083836555480957,-0.5406395792961121,0.13751457631587982,-498.6947326660156,-449.35400390625,-22.09617042541504,-15.6868257522583,29.255733489990234,29.255523681640625,29.267976760864258,29.267658233642578,-0.00017680595919955522,-0.00017196981934830546,1.397329742758302e-05,2.25030566980422e-06,0.0034366289619356394,-0.0038844288792461157,-0.0018070598598569632,0.001331972423940897,-714.0254516601562,786.0012817382812,16.405485153198242,44.57307815551758,-25.871000289916992,-24.96344757080078,2.1136984825134277,0.3506094813346863,0.2999916076660156,-0.00742620974779129,0.16100676357746124,29.266878128051758,-0.00391068821772933,4.830922989640385e-05,0.007616274990141392,-0.68055659532547,0.01224454864859581,0.40646588802337646,-0.0,3322.465087890625,3274.595947265625,2467.25634765625,2575.08984375
1767783207.999653,6969619580540723221,225,30.27370262145996,30.75830841064453,54.346378326416016,54.31215286254883,6.086068153381348,9.964627265930176,-0.10933315753936768,2.351527690887451,249.90110778808594,118.19790649414062,-112.82389068603516,-23.000574111938477,29.31996726989746,29.31855583190918,29.305233001708984,29.30411148071289,0.0023963500279933214,0.0023333842400461435,-7.071628351695836e-05,-7.0030233473517e-05,0.003432956524193287,-0.0038074220065027475,-0.0018183947540819645,0.0012987364316359162,-701.2752685546875,765.3240966796875,17.356279373168945,38.17926025390625,335.8369140625,333.36767578125,-10.717763900756836,-10.585958480834961,0.3006610870361328,-0.005911766551434994,0.17174698412418365,29.305051803588867,-0.0001179751634481363,-0.0007273285882547498,-0.0013314011739566922,0.16321593523025513,-0.0001931440638145432,0.19636878371238708,-0.0,3016.942138671875,3132.193115234375,2514.176513671875,2505.02978515625
1767783209.0583968,6969619580540723221,246,29.891643524169922,29.48524284362793,54.284873962402344,54.44977569580078,8.838335990905762,11.394670486450195,1.4998764991760254,0.28241071105003357,-65.9638671875,-72.36309051513672,-28.619199752807617,6.4975152015686035,29.22757339477539,29.227048873901367,29.287939071655273,29.287487030029297,-0.0014741093618795276,-0.0014829732244834304,4.047364927828312e-05,3.055973138543777e-05,0.003287731669843197,-0.003754404606297612,-0.001798743032850325,0.001333043328486383,-674.9913330078125,749.1843872070312,16.23590850830078,42.328651428222656,-208.0230255126953,-206.9440460205078,6.099320888519287,4.723282814025879,0.3021259307861328,-0.007632854860275984,0.17744190990924835,29.286861419677734,0.013053136877715588,-6.29849819233641e-05,-0.0026142275892198086,-0.13757994771003723,-0.0016069404082372785,0.005862895864993334,-0.0,3061.236083984375,2998.489013671875,2490.364013671875,2585.857421875
1767783210.1107714,6969619580540723221,267,30.60127067565918,31.011245727539062,54.493629455566406,54.33584976196289,-11.418232917785645,6.663121700286865,-2.5672552585601807,-1.4128402471542358,-133.350341796875,194.19444274902344,-156.2721405029297,194.5370635986328,28.614831924438477,28.6138973236084,28.615476608276367,28.6146183013916,-6.2337794588529505e-06,-5.67741062695859e-06,1.1513241588545498e-05,1.3798695363220759e-05,0.00352321844547987,-0.0038339996244758368,-0.0018390252953395247,0.0013300476130098104,-712.860595703125,774.2383422851562,15.60617733001709,35.895904541015625,-0.8714906573295593,-0.8190193772315979,1.7649660110473633,2.077440023422241,0.3003253936767578,-0.004793085623532534,0.17343461513519287,28.61471939086914,-0.005890615750104189,-0.0006443046731874347,-0.010110312141478062,-0.24509797990322113,-0.0008377871126867831,0.25077366828918457,-0.0,3061.755615234375,3231.602294921875,2587.65625,2512.41943359375
1767783211.1481903,6969619580540723221,288,30.5906982421875,30.551158905029297,54.32512283325195,54.45306396484375,8.690013885498047,4.403553009033203,1.5576796531677246,0.48249152302742004,561.2957153320312,478.8151550292969,125.15225982666016,-204.5972900390625,29.351594924926758,29.351423263549805,29.30927848815918,29.308713912963867,0.003768393537029624,0.003793030511587858,-0.00010991444287355989,-0.00010953356832033023,0.003436499275267124,-0.0038233904633671045,-0.0017791237914934754,0.0013590751914307475,-703.3955078125,761.30908203125,13.942872047424316,37.023868560791016,530.6436157226562,532.3667602539062,-16.661090850830078,-16.805553436279297,0.3005561828613281,-0.006321452092379332,0.18159987032413483,29.310131072998047,0.0026004433166235685,-0.0002570821961853653,0.0038792553823441267,0.3612763583660126,-0.005317074246704578,-0.060963209718465805,-0.0,3047.3505859375,3032.894287109375,2516.224365234375,2578.274658203125
1767783212.1600583,6969619580540723221,308,30.79401397705078,31.02277183532715,54.42436981201172,54.42038345336914,-5.269404888153076,-3.5145840644836426,-3.171649217605591,-0.14723223447799683,40.276912689208984,125.46331787109375,-91.371337890625,90.5625,29.617952346801758,29.613868713378906,29.280010223388672,29.279224395751953,0.008336343802511692,0.008265367709100246,-0.00017196334374602884,-0.00017407290579285473,0.0035015158355236053,-0.0038885201793164015,-0.0018390151672065258,0.001330081489868462,-707.6233520507812,771.3118896484375,20.68414878845215,38.677650451660156,1140.25634765625,1144.31689453125,-25.97600746154785,-26.468338012695312,0.3005027770996094,-0.006012842990458012,0.1843075454235077,29.28816032409668,-0.0038917658384889364,-0.000490088015794754,-0.0017438395880162716,0.06864580512046814,0.005135577637702227,0.05087358132004738,-0.0,3063.526123046875,3132.43798828125,2553.852294921875,2566.071044921875
1767783213.1991847,6969619580540723221,329,30.7532901763916,30.60273551940918,54.46869659423828,54.48942184448242,3.534161329269409,-4.697742462158203,0.46247929334640503,-1.2666765451431274,134.1944122314453,59.248382568359375,-224.44332885742188,-129.05958557128906,29.32317543029785,29.322893142700195,29.302675247192383,29.30206871032715,0.0025785844773054123,0.0026202129665762186,-7.26123180356808e-05,-7.3331939347554e-05,0.003451758064329624,-0.0038674031384289265,-0.0018362211994826794,0.0013429976534098387,-700.4752807617188,766.7776489257812,14.588445663452148,41.99124526977539,361.986328125,364.49609375,-11.121847152709961,-11.30966854095459,0.3008003234863281,-0.0068552326411008835,0.1918993592262268,29.30298614501953,0.0035414749290794134,-0.00039398836088366807,0.0013149380683898926,0.16926807165145874,-0.007652802858501673,-0.4924613833427429,-0.0,3058.34326171875,3008.13232421875,2598.219482421875,2610.9423828125
1767783214.2744277,6969619580540723221,350,31.292240142822266,31.630020141601562,54.511375427246094,54.469608306884766,-2.0259177684783936,-3.190565824508667,-0.5503622889518738,1.1792633533477783,-184.58224487304688,-1090.81201171875,289.0189514160156,-226.0616912841797,29.393001556396484,29.37818717956543,29.29862403869629,29.28160858154297,0.0013277380494400859,0.0013313854578882456,2.9791002816637047e-05,-4.985611667507328e-05,0.005199518986046314,-0.002308617113158107,-0.0015375710790976882,0.0016399865271523595,-991.1596069335938,527.229736328125,-24.800148010253906,11.213172912597656,191.74314880371094,190.3785400390625,4.649201393127441,-7.717118263244629,0.2999229431152344,0.022556060925126076,0.17230014503002167,29.29145050048828,-0.0027827706653624773,-0.009637045674026012,-0.00023189910280052572,0.02021321840584278,0.7569451928138733,0.9293098449707031,-0.0,3272.1865234375,3213.15576171875,2637.13916015625,2615.64501953125
1767783215.3064954,6969619580540723221,371,32.6936149597168,29.731414794921875,58.025917053222656,54.16952133178711,-11.672062873840332,-80.3645248413086,241.57005310058594,-3.867605209350586,-8998.67578125,-1591.0341796875,12430.7470703125,-675.5825805664062,29.239578247070312,29.053861618041992,29.0925350189209,29.04035186767578,0.006112081464380026,0.00282693631015718,-0.0004716442199423909,0.00011210273805772886,0.006093890871852636,-0.001557746552862227,0.003358041401952505,0.005583088845014572,-0.0,380.93475341796875,-745.8746948242188,-385.1202392578125,0.0,374.60491943359375,-89.12419128417969,19.895076751708984,0.3007621765136719,0.01454588770866394,0.20515890419483185,29.033357620239258,-0.02285720594227314,-0.03729123994708061,-0.03588523343205452,-0.8752449750900269,-1.5576988458633423,-6.581479549407959,0.006227603182196617,2328.7822265625,2689.899169921875,4621.15966796875,3009.8876953125
1767783216.3118353,6969619580540723221,391,33.422889709472656,29.444122314453125,53.713680267333984,55.414466857910156,-5.4665350914001465,-77.43091583251953,-10.960551261901855,108.58122253417969,-5027.48876953125,-3213.006591796875,675.247314453125,6553.65185546875,30.48919105529785,29.992996215820312,28.931882858276367,28.948932647705078,0.03168952837586403,0.03517144173383713,-0.000766834884416312,-0.0004899764317087829,0.005083722062408924,-0.002589214826002717,-0.0010146759450435638,0.001828304841183126,-0.0,350.5174560546875,0.0,150.06483459472656,0.0,2706.97119140625,-0.0,-77.74813842773438,0.3006000518798828,0.03328073024749756,0.15501518547534943,28.89871597290039,-0.08182323724031448,-0.0005781468935310841,-0.013110820204019547,-0.012102263979613781,0.10478312522172928,-0.5738154053688049,-0.0,2591.423095703125,2671.478271484375,2218.710693359375,3436.779541015625
1767783217.347061,6969619580540723221,412,32.44395065307617,30.499156951904297,54.30415344238281,52.85731506347656,158.0316619873047,-260.27752685546875,39.50108337402344,-113.845458984375,9456.73046875,-10282.3154296875,1144.2215576171875,-6696.24365234375,29.469594955444336,30.47810173034668,28.413227081298828,28.435232162475586,0.03810727223753929,0.05184553936123848,-0.0010187082225456834,4.78017536806874e-05,0.0031135131139308214,-0.004599122796207666,-0.0019213476916775107,0.0012178997276350856,-462.1329650878906,0.0,49.86183547973633,-0.0,3271.42822265625,0.0,-35.50225067138672,-0.0,0.30025482177734375,-0.02335362136363983,0.1320759356021881,28.392602920532227,0.03786437585949898,-0.0017602253938093781,0.09628771990537643,-1.5135945081710815,-0.2503616213798523,-0.9013433456420898,-0.0,3377.31982421875,1638.295654296875,1948.7384033203125,1766.1021728515625
1767783218.35613,6969619580540723221,432,30.737977981567383,31.873424530029297,56.439796447753906,56.48063659667969,-277.07757568359375,-155.978271484375,188.951416015625,-104.15203094482422,-15531.4697265625,-5708.77490234375,12170.291015625,-14466.3505859375,29.90561866760254,29.36635398864746,28.396333694458008,28.41942024230957,0.0514567568898201,0.04014443978667259,-2.016687903960701e-05,-0.00014745868975296617,0.0014857555506750941,-0.006995725445449352,-0.0011086970334872603,0.0024140875320881605,-0.0,395.7650451660156,-108.82403564453125,85.45820617675781,0.0,1405.9559326171875,2.594233274459839,-23.39994239807129,0.3005409240722656,-0.050444647669792175,0.2693849205970764,28.348569869995117,0.12006442248821259,0.02506079524755478,0.11440429091453552,6.050881862640381,-0.598715603351593,-0.29414501786231995,-0.0,958.0925903320312,1326.5003662109375,4226.34814453125,3332.807373046875
1767783219.393927,6969619580540723221,453,30.321184158325195,31.9713134765625,54.57746505737305,53.89329528808594,-5.6760358810424805,-119.28787994384766,5.0208516120910645,-50.09220886230469,-1193.6741943359375,2032.7926025390625,-3859.090576171875,1761.939453125,29.638683319091797,28.734281539916992,28.380212783813477,28.373638153076172,0.03972432762384415,0.024224640801548958,-0.0005439525120891631,-0.0007715750252828002,0.0031779988203197718,-0.004538324195891619,-0.002078468445688486,0.0011810684809461236,-0.0,559.4248657226562,17.312170028686523,-8.144618034362793,0.0,2073.69873046875,-57.80613327026367,-56.83775329589844,0.30144691467285156,-0.015148002654314041,0.1840527206659317,28.33441734313965,0.05072919279336929,-0.00016710511408746243,0.08964022994041443,-0.4884708523750305,-0.13108393549919128,-2.9569835662841797,-0.0,1880.0582275390625,2995.84814453125,2723.4453125,2406.951171875
1767783220.463824,6969619580540723221,474,30.72297477722168,31.923982620239258,55.76390075683594,56.854488372802734,7.606770038604736,-102.44706726074219,42.49247360229492,91.3890380859375,-2403.67822265625,-7420.52294921875,3046.0205078125,3992.86572265625,29.141725540161133,28.929758071899414,28.362464904785156,28.37245750427246,0.027881326153874397,0.02637333795428276,-0.000519160064868629,-0.00048176091513596475,0.003167977323755622,-0.004524729214608669,-0.0019094394519925117,0.0013786882627755404,-244.04710388183594,402.7765808105469,49.38430404663086,340.6412048339844,1264.806884765625,1483.737548828125,-41.88269805908203,-94.1189193725586,0.29594993591308594,-0.008415933698415756,0.16269704699516296,28.321609497070312,0.10820599645376205,0.004409319255501032,-0.014768295921385288,6.595310688018799,0.1926983743906021,2.1541030406951904,-0.0,2648.770751953125,2327.591064453125,3127.25927734375,4954.2392578125
1767783221.5070066,6969619580540723221,495,31.478126525878906,34.55596923828125,53.695655822753906,54.44463348388672,85.07640075683594,47.31721496582031,119.50234985351562,-140.8439178466797,15151.5107421875,-8399.66015625,15454.7373046875,-15811.6572265625,29.024452209472656,28.638906478881836,28.35736656188965,28.35974884033203,0.021517720073461533,0.01766495406627655,-0.0008382650557905436,-0.000986045110039413,0.002862492110580206,-0.004645296838134527,-0.0016836364520713687,0.0014199349097907543,-0.0,509.81268310546875,0.0,-27.923580169677734,0.0,1348.8590087890625,-0.0,-76.18578338623047,0.3004722595214844,-0.02035791054368019,0.10183936357498169,28.332021713256836,0.03271793574094772,-0.0010259654372930527,0.07573568820953369,-0.5311870574951172,-0.14518921077251434,3.234581470489502,-0.0,3721.465087890625,3871.392578125,2227.235107421875,2170.30322265625
1767783222.5586271,6969619580540723221,516,31.782272338867188,27.80410385131836,52.73037338256836,56.43949508666992,-75.41654205322266,-101.93385314941406,62.83396530151367,62.3641357421875,-7281.357421875,7168.22509765625,7268.669921875,-3889.2001953125,29.853939056396484,30.523523330688477,28.301546096801758,28.321592330932617,0.05053240805864334,0.05607124790549278,-0.0005988430348224938,-0.0005515996017493308,0.002791667589917779,-0.004775813315063715,-0.002495800843462348,0.0002650895621627569,-260.41351318359375,0.0,0.0,32.46046447753906,2320.459228515625,0.0,-0.0,-36.576873779296875,0.29852294921875,-0.04571910947561264,0.10004280507564545,28.278709411621094,0.06222579628229141,-0.004611236974596977,0.10725122690200806,6.653608322143555,-0.3650590479373932,1.4280414581298828,-0.0,2134.827880859375,2181.2978515625,2984.42529296875,4393.521484375
1767783223.6081524,6969619580540723221,537,33.03716278076172,32.92511749267578,53.83575439453125,56.22024154663086,-72.1217041015625,-82.40740203857422,-11.740439414978027,53.639404296875,-7687.2333984375,-4575.49853515625,-1131.8349609375,-803.2754516601562,29.660043716430664,29.220502853393555,28.377397537231445,28.393327713012695,0.04303400591015816,0.04253681004047394,-0.0009964436758309603,-0.0010188906453549862,0.002631887560710311,-0.005561007186770439,-0.003173243487253785,2.8742757422151044e-05,-225.50839233398438,590.8948974609375,126.18510437011719,168.04994201660156,1851.1180419921875,3136.6640625,-70.01956939697266,-128.8708953857422,0.2983989715576172,-0.03898404538631439,0.19542968273162842,28.34685516357422,-0.03219350427389145,0.0018233433365821838,-0.009696905501186848,4.916638374328613,-0.2220173329114914,4.1749677658081055,-0.0,1980.8916015625,2772.157470703125,2224.89208984375,3769.45703125
1767783224.6461282,6969619580540723221,558,30.28350257873535,32.65748977661133,54.16480255126953,56.638912200927734,-51.12663650512695,79.78011322021484,-29.798297882080078,80.12989044189453,540.1370849609375,4389.6796875,358.5893249511719,1144.3834228515625,29.707033157348633,29.391033172607422,28.47391128540039,28.474077224731445,0.03721986711025238,0.02719714120030403,-0.000425972742959857,-0.0009342679404653609,0.002310757292434573,-0.005118461791425943,-0.002488302532583475,0.000810684694442898,-0.0,0.0,-82.76459503173828,13.094788551330566,0.0,0.0,-66.99423217773438,-74.66461944580078,0.3003273010253906,-0.03372926637530327,0.16156809031963348,28.423368453979492,0.01689821109175682,0.0005438972730189562,-0.06156427413225174,2.290431022644043,-0.05399291217327118,5.499781131744385,-0.0,2129.992919921875,2973.6806640625,2902.210693359375,2933.584716796875
1767783225.6539872,6969619580540723221,578,32.3492431640625,31.688209533691406,55.799564361572266,52.41242980957031,-43.37954330444336,25.575468063354492,19.445932388305664,-34.052913665771484,1076.1737060546875,242.63914489746094,896.7150268554688,-712.4389038085938,29.855594635009766,29.61006736755371,27.350391387939453,26.827138900756836,0.0825129970908165,0.09324871003627777,-0.0005066972225904465,-0.001363886520266533,0.06829781830310822,0.06177365407347679,0.022218408063054085,0.02574901096522808,-3000.767333984375,-2184.043212890625,-2358.177490234375,-1098.4337158203125,3257.16650390625,3271.671630859375,-76.38691711425781,-74.84504699707031,0.30208587646484375,1.2381997108459473,0.06975116580724716,27.105915069580078,0.0702684298157692,-0.30428028106689453,0.07637559622526169,0.5698947310447693,1.2916133403778076,0.48041796684265137,-0.0,3323.7080078125,2526.775146484375,3476.633056640625,1136.858642578125
1767783226.6581657,6969619580540723221,598,32.59996795654297,31.860862731933594,54.70489501953125,54.764530181884766,10.546558380126953,2.8029844760894775,0.9868003129959106,-1.4723989963531494,87.3516616821289,213.55276489257812,-426.92626953125,-162.5736083984375,29.316120147705078,29.314502716064453,29.278337478637695,29.275726318359375,0.0032537486404180527,0.003338598646223545,-7.238139369292185e-05,-8.441817772109061e-05,0.0037894744891673326,-0.0038465873803943396,-0.0018913783133029938,0.0013737078988924623,-676.1749267578125,689.6181640625,6.303971290588379,48.5501823425293,423.5511169433594,427.0343017578125,-10.08770751953125,-11.974063873291016,0.30094146728515625,-0.006050676107406616,0.17290180921554565,29.279136657714844,0.027013152837753296,-0.0027751117013394833,3.540374382282607e-05,0.07819759845733643,0.08388780057430267,-0.6127693057060242,-0.0,3473.10498046875,3304.640869140625,2771.712646484375,2805.400146484375
1767783227.7019315,6969619580540723221,619,32.408058166503906,28.1803035736084,55.00126266479492,54.4701042175293,27.231504440307617,-32.82086181640625,6.483502388000488,-8.510795593261719,-279.55499267578125,-608.1798706054688,-555.0969848632812,47.30923080444336,28.13374900817871,27.96433448791504,28.239328384399414,28.024221420288086,-0.0034993120934814215,-0.0021725064143538475,-5.337630500434898e-05,0.00027356139617040753,0.007717388216406107,0.0005011892644688487,0.012281706556677818,0.012662974186241627,-1284.72216796875,25.428897857666016,-1468.4656982421875,-1050.4423828125,-490.8271484375,-236.5143585205078,-8.04094123840332,36.50886917114258,0.30318260192871094,-0.11034572869539261,0.17484953999519348,28.13055992126465,0.029157433658838272,-0.13827425241470337,0.023823633790016174,0.5217177271842957,-1.8704062700271606,-1.5996965169906616,0.026637816801667213,3698.13916015625,2410.567138671875,3074.649169921875,2525.45068359375
1767783228.757551,6969619580540723221,640,37.15829849243164,25.399898529052734,57.58358383178711,51.108821868896484,196.55133056640625,-141.5015869140625,99.20177459716797,-76.59622955322266,9476.138671875,-3161.716552734375,2341.958984375,-2895.7060546875,29.135421752929688,30.616666793823242,25.745019912719727,24.36319351196289,0.12216135114431381,0.23829007148742676,-0.0007210291805677116,0.000429520063335076,0.12538425624370575,0.12470009177923203,0.07669467478990555,0.07243208587169647,-5229.7626953125,-1310.978515625,-4103.4267578125,-0.0,4874.15283203125,2723.329833984375,-63.04081344604492,-0.0,0.3013572692871094,1.750328540802002,0.19128301739692688,25.09015655517578,0.06959941983222961,-0.8559018969535828,-0.1885068714618683,6.916050434112549,-1.0068800449371338,-11.38366413116455,0.07761538773775101,4939.42041015625,1576.0147705078125,4703.79541015625,920.5767822265625
1767783229.8002605,6969619580540723221,661,28.137197494506836,22.580768585205078,54.40639114379883,51.56850814819336,-16.325241088867188,-329.6291809082031,25.78695297241211,25.165260314941406,702.4758911132812,-9484.6083984375,1951.890380859375,1168.882568359375,21.46637535095215,21.845273971557617,16.84794044494629,15.749731063842773,0.5563024878501892,0.8161354660987854,0.013765991665422916,0.0555788092315197,0.8562131524085999,0.9217187762260437,0.38397058844566345,0.4205619990825653,-1132.7906494140625,-0.0,-1450.72119140625,-1607.95263671875,524.7247314453125,0.0,69.36248779296875,250.8362274169922,0.3092536926269531,13.775948524475098,0.07582801580429077,12.754255294799805,0.013933781534433365,-1.2488605976104736,-0.030930370092391968,5.6309309005737305,-3.30318021774292,3.218280076980591,-0.30413997173309326,1421.4710693359375,78.1312026977539,2949.275146484375,1123.758056640625
1767783230.8630435,6969619580540723221,682,29.477556228637695,27.97586441040039,56.37269592285156,50.35762023925781,-0.10802142322063446,-10.883116722106934,9.54530143737793,-2.3350768089294434,832.8290405273438,-898.5086669921875,696.6602172851562,-99.50423431396484,29.720399856567383,30.158031463623047,4.485838890075684,6.051027297973633,4.965148448944092,5.5017924308776855,0.009170006029307842,0.47100841999053955,0.9985023736953735,1.0192511081695557,0.6510195136070251,0.7026910185813904,-2314.962646484375,-1600.768310546875,-3702.57177734375,-0.0,1409.9415283203125,1044.2952880859375,73.65096282958984,0.0,0.30375099182128906,7.036813259124756,0.03561811521649361,2.2629289627075195,-0.007132995408028364,-0.7554116249084473,0.01141418144106865,0.11915000528097153,-0.2021263837814331,1.0478726625442505,-0.30413997173309326,3043.542236328125,1949.3575439453125,4127.13037109375,181.5067596435547
1767783231.908108,6969619580540723221,703,26.85804557800293,32.3408317565918,53.4284782409668,53.78185272216797,37.570411682128906,-6.749677658081055,-31.262956619262695,26.151390075683594,5747.494140625,-1373.345458984375,-74.8906021118164,-1040.74853515625,29.641393661499023,29.1660213470459,4.039713382720947,4.293088436126709,4.558393955230713,4.357881546020508,-0.0011261597974225879,-0.001151176285929978,0.13422554731369019,0.12747029960155487,0.011974719353020191,-0.02166726253926754,-447.6894836425781,-261.14093017578125,-624.1260375976562,1718.5457763671875,2567.027099609375,2607.05224609375,70.72023010253906,115.43519592285156,0.303680419921875,0.996598482131958,-0.0010732058435678482,3.9588468074798584,-0.006375371012836695,0.15686237812042236,-0.05184983089566231,0.06224825605750084,1.2852416038513184,-3.423098087310791,-0.30413997173309326,2493.620849609375,2717.50439453125,2000.168212890625,1991.834228515625
1767783232.9605677,6969619580540723221,724,24.895475387573242,33.45638656616211,53.756263732910156,54.01945114135742,-13.163019180297852,-133.13687133789062,-57.50774002075195,15.953202247619629,3816.129638671875,-5867.060546875,-5254.55908203125,-125.73420715332031,30.264530181884766,29.946937561035156,5.6201276779174805,7.764534950256348,3.792100667953491,2.714679002761841,0.0007299946155399084,-0.0010715159587562084,-0.4775155186653137,-0.40826258063316345,-0.01730135828256607,-0.11168475449085236,618.1843872070312,0.0,0.0,3870.529052734375,1310.219970703125,0.0,0.0,-57.81623840332031,0.30568885803222656,-1.0703250169754028,0.09064695239067078,6.477727890014648,-0.001280657947063446,1.4035627841949463,-0.009207626804709435,-0.4319208860397339,2.231182336807251,0.18363232910633087,-0.30413997173309326,1682.5042724609375,2046.6666259765625,1333.7320556640625,2651.4169921875
1767783233.9967864,6969619580540723221,745,30.302860260009766,28.918725967407227,50.92912673950195,54.29741668701172,64.21453857421875,-41.621700286865234,-37.39445495605469,39.07815170288086,2265.55419921875,-786.1183471679688,-1509.7520751953125,5569.216796875,28.822011947631836,29.278791427612305,4.659695625305176,5.278106689453125,4.222141742706299,3.894019365310669,-0.008700218982994556,-0.0007657568203285336,-0.46847039461135864,-0.45523878931999207,-0.013516527600586414,-0.015162581577897072,930.2348022460938,0.0,0.0,944.4487915039062,2003.5107421875,0.0,-0.0,-64.85360717773438,0.30364036560058594,-2.385533332824707,-0.019632533192634583,4.677257537841797,-0.08837748318910599,0.374258428812027,-0.011777919717133045,-4.4782185554504395,-1.7145414352416992,0.3417064845561981,0.3403399884700775,2957.95751953125,1970.0654296875,191.97940063476562,2680.99853515625
1767783235.0042243,6969619580540723221,765,30.72825050354004,31.178674697875977,51.637062072753906,53.484073638916016,-134.61013793945312,154.41384887695312,-92.83802795410156,98.25359344482422,-4242.677734375,2227.15869140625,-3120.04296875,9362.2822265625,30.221351623535156,29.664461135864258,7.840183258056641,7.418940544128418,2.7661023139953613,2.964423894882202,-0.0005086446763016284,-0.00026978718233294785,-0.07841359823942184,-0.08892364799976349,0.011129642836749554,-0.02022515796124935,123.40373229980469,589.8342895507812,-0.0,0.0,2643.549560546875,4447.60986328125,-0.0,0.0,0.300537109375,-1.0980265140533447,-0.004773728549480438,7.429976940155029,0.03313927724957466,-0.2842472195625305,-0.1727583408355713,-4.597829341888428,0.9584804773330688,3.2552671432495117,0.23067231476306915,2262.29638671875,3752.71630859375,717.0504150390625,2133.5322265625
1767783236.0070388,6969619580540723221,785,34.40847396850586,27.753650665283203,52.515438079833984,54.70254898071289,99.49543762207031,-2.420874834060669,11.407602310180664,-30.561424255371094,5459.2880859375,-13065.6865234375,5965.51513671875,-9812.8466796875,29.458738327026367,30.146018981933594,11.156258583068848,9.532638549804688,1.6335676908493042,2.1540260314941406,-0.002605978399515152,-0.0011201994493603706,0.19392119348049164,0.21748517453670502,0.10046136379241943,0.05924130231142044,-719.8993530273438,-493.16693115234375,-0.0,-2926.733154296875,3135.6611328125,2788.0673828125,-0.0,97.09502410888672,0.3053550720214844,0.4199097454547882,0.06120745465159416,10.265460014343262,-0.15611398220062256,-1.048696756362915,0.07323761284351349,-5.8201422691345215,-2.828575849533081,1.823913335800171,0.2504887580871582,3589.641357421875,2112.31005859375,1532.151611328125,2163.541748046875
1767783237.043034,6969619580540723221,806,29.17572784423828,30.55927848815918,56.531005859375,50.44072341918945,50.59153747558594,-70.79000854492188,8.970309257507324,-19.224578857421875,551.088134765625,-6276.5810546875,3107.6357421875,-2120.35986328125,27.655982971191406,28.045551300048828,7.200435161590576,5.253029823303223,2.7901721000671387,3.7178521156311035,0.0007618044619448483,0.029143283143639565,0.8366415500640869,0.9218148589134216,0.09886446595191956,0.17664235830307007,-2252.524658203125,-1911.789306640625,-4633.96728515625,-0.0,1901.497802734375,1542.9237060546875,-72.42040252685547,0.0,0.3057880401611328,5.524838924407959,0.06000683084130287,5.463756561279297,-0.004348002839833498,-1.416757345199585,0.05250261723995209,2.020887851715088,-0.019164154306054115,2.1637258529663086,-0.30413997173309326,3206.525390625,2040.3837890625,4323.4189453125,0.0
1767783238.0577385,6969619580540723221,826,29.370149612426758,23.145078659057617,55.42829895019531,53.43775177001953,6.8100128173828125,-4.5707502365112305,15.192026138305664,14.832781791687012,-51.37932586669922,-269.4028015136719,570.8956909179688,572.2686157226562,-8.1318111966322e-12,-8.110552160434104e-12,-6.574555344585065e-10,0.0,-0.09753409028053284,-0.08031243830919266,-0.08520669490098953,-0.0676177367568016,0.09942198544740677,0.09907891601324081,0.07919014990329742,0.07712256908416748,-2572.90185546875,-1189.4945068359375,-2443.533203125,-1650.309814453125,-2415.335693359375,-973.0810546875,-2668.390869140625,-1545.389404296875,0.3043212890625,0.3567890524864197,-0.0038218284025788307,0.22830148041248322,0.010739520192146301,-0.033661771565675735,-0.028813201934099197,-0.5130199790000916,0.9339982867240906,-0.023258166387677193,0.14943161606788635,2901.495361328125,1182.646484375,3327.918701171875,1904.5819091796875
1767783239.0967557,6969619580540723221,847,30.294864654541016,24.20163345336914,52.6900749206543,54.37010955810547,-0.061136867851018906,0.39524945616722107,-0.0255208071321249,0.20626626908779144,-11.766766548156738,-0.11588255316019058,-0.7334663271903992,6.740143299102783,-8.121183413256627e-12,-8.121179943809675e-12,-1.2747927713441243e-10,0.0,0.0002942935680039227,0.0002033728378592059,-0.00028600418590940535,-0.00033218346652574837,-0.002079152036458254,-0.0020749096293002367,-0.0020937772933393717,-0.002110846573486924,-33.173648834228516,14.672861099243164,-73.1821517944336,-174.67745971679688,108.059814453125,113.81949615478516,-225.46522521972656,54.70675277709961,0.3056774139404297,-0.0031928392127156258,0.005867728963494301,-0.0019033472053706646,-0.002642750507220626,0.0022441637702286243,-0.005471463315188885,-0.004923970904201269,0.012628578580915928,0.09127043932676315,0.3403399586677551,2970.754638671875,1735.4110107421875,1467.0618896484375,2361.30859375
1767783240.1133418,6969619580540723221,867,28.28433609008789,32.09360122680664,53.5870475769043,53.07624053955078,-20.846406936645508,-29.20260238647461,-30.652660369873047,-20.686363220214844,-802.127197265625,-2163.8349609375,-1446.8731689453125,-2574.169189453125,27.174175262451172,26.63271141052246,1.6073771715164185,1.8120431900024414,4.735748767852783,4.5792741775512695,-0.0009528414811939001,-0.002975999377667904,-0.02349085919559002,-0.025711851194500923,0.0024216247256845236,-0.010769065469503403,-18.61741828918457,164.45103454589844,-149.17608642578125,514.2972412109375,2291.422607421875,2963.53955078125,-62.293922424316406,-141.0226593017578,0.3031749725341797,0.08602779358625412,0.017935946583747864,1.6724437475204468,0.004961260594427586,0.12661521136760712,0.007406681310385466,0.5297045111656189,0.43880942463874817,-0.7944791316986084,-0.19678281247615814,2113.699951171875,2641.975341796875,1770.6787109375,1466.8287353515625
1767783241.1617825,6969619580540723221,888,25.864944458007812,33.427024841308594,54.34968948364258,54.08799743652344,28.288721084594727,-28.125856399536133,61.83135223388672,38.964752197265625,3274.51611328125,-3175.900390625,5514.26220703125,2323.02197265625,30.1627254486084,29.64720916748047,4.786098480224609,6.079473972320557,4.1916093826293945,3.456235408782959,-0.000264214031631127,-0.0013633851194754243,-0.2387857437133789,-0.22123272716999054,0.0033944817259907722,-0.0722399577498436,398.6466369628906,298.7140197753906,-258.1326599121094,3914.61669921875,1946.469970703125,1217.0601806640625,37.0587043762207,-113.11225891113281,0.3029155731201172,-0.11040765047073364,0.020448094233870506,5.1963419914245605,0.00017931126058101654,0.8349937200546265,-0.03244653344154358,-0.790108859539032,1.1866540908813477,-1.8654171228408813,-0.30413997173309326,1986.8226318359375,3258.706298828125,2546.719970703125,2493.34765625
1767783242.1918163,6969619580540723221,909,24.212575912475586,32.1023063659668,53.19838333129883,53.64284896850586,8.95753002166748,-30.732646942138672,-0.9358973503112793,3.8896126747131348,497.1560974121094,-974.5574340820312,-228.9520263671875,456.15240478515625,30.170013427734375,29.30632781982422,4.599246978759766,6.85850191116333,4.202930450439453,3.094529390335083,0.000316641730023548,0.00013912536087445915,-0.7043842077255249,-0.6197665333747864,-0.0255146324634552,-0.018837470561265945,1062.6405029296875,1970.9345703125,1431.9345703125,1710.99755859375,1343.3330078125,2600.524169921875,-24.40245819091797,14.808756828308105,0.3011341094970703,-2.8587775230407715,0.03610906004905701,5.718352794647217,0.034775830805301666,1.4000016450881958,0.06423495709896088,1.2562994956970215,0.5568991303443909,0.6419240832328796,-0.0,1343.7879638671875,3172.138427734375,1615.99951171875,2154.689208984375
1767783243.208553,6969619580540723221,929,32.769432067871094,27.443628311157227,51.52824020385742,55.01171112060547,-26.792734146118164,20.095991134643555,-17.572179794311523,13.708816528320312,361.4622802734375,-78.4024429321289,494.9674072265625,301.3159484863281,29.112873077392578,29.528125762939453,7.691928386688232,8.024285316467285,2.901632785797119,2.821265459060669,-0.001805041218176484,-0.0005263224593363702,-0.4038240909576416,-0.3988230228424072,0.007222939282655716,-0.014185155741870403,1045.5760498046875,1045.760986328125,-370.7991943359375,1249.7645263671875,2701.746826171875,2222.428466796875,-85.21968078613281,-71.5799560546875,0.3033943176269531,-2.9172654151916504,0.02267344295978546,7.437159538269043,0.015403473749756813,0.21097736060619354,-0.009398932568728924,-1.554551362991333,-1.351603627204895,0.7768436670303345,0.3403399884700775,2799.7568359375,2278.501953125,714.5355834960938,2890.18798828125
1767783244.250201,6969619580540723221,951,23.99768829345703,30.14777946472168,52.95347213745117,54.50260925292969,-289.05438232421875,-128.50115966796875,-2.3313403129577637,-21.897663116455078,-3774.56005859375,-19523.943359375,1594.4483642578125,-3792.154541015625,29.35460662841797,29.103504180908203,11.630656242370605,11.363042831420898,1.5420492887496948,1.5613056421279907,0.0006265025585889816,-0.0010563126998022199,0.025636596605181694,0.01862645335495472,-0.016333647072315216,-0.015169386751949787,-0.0,-0.0,908.6732177734375,968.0587158203125,0.0,0.0,-64.59716796875,-76.6982650756836,0.3069744110107422,0.008723332546651363,0.0814572274684906,11.471247673034668,0.004378448240458965,-0.14841291308403015,0.02780786342918873,-8.557981491088867,1.9142543077468872,8.252069473266602,0.011937056668102741,180.96011352539062,838.583740234375,1429.9039306640625,2193.171875
1767783245.2575998,6969619580540723221,971,31.884193420410156,26.79071617126465,53.82362747192383,54.91289520263672,5.685098648071289,9.723605155944824,-163.4276885986328,142.54151916503906,-4174.02099609375,2230.397216796875,-13887.033203125,8775.0263671875,29.0343017578125,29.26722526550293,13.093010902404785,9.744210243225098,1.213874101638794,1.9575451612472534,0.001682693837210536,0.0039013989735394716,0.5878489017486572,0.7121012806892395,0.12546387314796448,0.1595304310321808,-0.0,-369.3456726074219,-0.0,-3826.353759765625,0.0,448.41168212890625,0.0,187.44302368164062,0.30356597900390625,5.321259498596191,0.13356560468673706,11.40927505493164,-0.0924234539270401,-2.0456364154815674,-0.0102677121758461,-2.8146841526031494,-1.5642203092575073,-0.659619927406311,0.028391821309924126,2410.282470703125,2297.86474609375,1657.33154296875,2482.628173828125
1767783246.2968755,6969619580540723221,992,33.33686828613281,34.533409118652344,54.7245979309082,51.54471969604492,36.00586700439453,131.06430053710938,20.569421768188477,12.916719436645508,-4089.78125,215.42877197265625,2590.422607421875,-167.36595153808594,-4.659092667225195e-09,-2.5152926408367193e-09,0.0,0.0,0.380778968334198,0.9323582649230957,-0.3059907555580139,0.14494191110134125,0.9188506007194519,0.9231204986572266,0.09176180511713028,0.21648821234703064,-2739.847412109375,-1483.1307373046875,-886.4901123046875,-977.538330078125,-775.0808715820312,1071.9224853515625,-2916.618896484375,688.984130859375,0.3041801452636719,3.9226179122924805,-0.08295765519142151,0.1328030228614807,-0.027709178626537323,-1.5654194355010986,0.01467264536768198,0.9220080375671387,5.112793922424316,-1.2986716032028198,-0.30413997173309326,2353.895751953125,1641.0625,2943.260498046875,920.21142578125
1767783247.3103356,6969619580540723221,1012,29.0924015045166,31.611141204833984,53.830448150634766,52.7281608581543,22.474672317504883,-21.60348129272461,13.287424087524414,-22.364559173583984,1083.2923583984375,-669.4285888671875,720.900390625,-558.778076171875,29.77009391784668,29.58667755126953,2.4779140949249268,2.896641254425049,5.170384407043457,4.912330150604248,-0.0015025530010461807,-0.002339063212275505,-0.044163819402456284,-0.0466766320168972,0.006787068210542202,-0.031232353299856186,30.029085159301758,185.51524353027344,-388.3266296386719,1274.6007080078125,2311.864013671875,2441.08251953125,-107.17211151123047,105.83531188964844,0.3039379119873047,0.2356451004743576,0.004765723831951618,2.5812814235687256,-0.005259106867015362,0.28632116317749023,0.026466598734259605,-0.7382494211196899,0.26808229088783264,1.1901063919067383,-0.30413997173309326,2585.553466796875,2519.6279296875,2089.35546875,1263.933837890625
1767783248.3460467,6969619580540723221,1033,24.464441299438477,35.26551818847656,53.8811149597168,53.04824447631836,-38.59307098388672,28.3877010345459,15.266545295715332,-16.30634880065918,-1307.8114013671875,1649.832763671875,1771.6334228515625,2156.633544921875,29.617429733276367,28.305927276611328,5.155838489532471,6.708883762359619,4.014504432678223,3.12854266166687,-0.0001558616349939257,-0.0019250984769314528,-0.31560882925987244,-0.2838832437992096,-0.005050375126302242,-0.08748260140419006,564.0486450195312,1015.1961059570312,280.7875671386719,3086.27392578125,1972.966064453125,3156.142822265625,-10.146679878234863,-96.61595916748047,0.30565834045410156,-0.38007545471191406,0.03725246712565422,5.730407238006592,0.020797282457351685,1.0114190578460693,-0.05538143217563629,0.558967649936676,1.0181374549865723,0.48532992601394653,-0.30413997173309326,1395.18115234375,3661.143310546875,1913.76416015625,1677.14013671875
1767783249.357486,6969619580540723221,1053,20.54424285888672,35.776798248291016,54.296390533447266,52.52891159057617,-29.72542381286621,83.73533630371094,-110.5262222290039,17.51245880126953,-1715.0826416015625,10264.4521484375,-11905.6376953125,885.9488525390625,26.881351470947266,24.930927276611328,4.967830657958984,6.741717338562012,3.5277342796325684,2.5797860622406006,-0.00011019931844202802,-0.00040973612340167165,-0.581379771232605,-0.520390510559082,-0.026385651901364326,-0.020120859146118164,804.4915161132812,3382.869384765625,783.9944458007812,0.0,1352.6524658203125,5136.0771484375,-4.213433742523193,-0.0,0.3012218475341797,-2.2841219902038574,0.05535279959440231,5.864492416381836,0.007688112556934357,1.0822656154632568,0.06664754450321198,-2.9191524982452393,-0.746497392654419,-1.7156561613082886,-0.0,961.2164916992188,4448.60205078125,1963.181884765625,1571.07373046875
1767783250.40918,6969619580540723221,1075,36.41193389892578,22.80554962158203,50.58125305175781,55.609169006347656,-32.530723571777344,-18.422325134277344,-30.10881233215332,-33.09075164794922,-4262.57421875,3189.963623046875,-3190.94677734375,-1526.7010498046875,28.18811798095703,29.804594039916992,7.288112640380859,7.06868839263916,2.7077958583831787,3.006911039352417,-0.004624815657734871,-0.0020936380606144667,-0.14394505321979523,-0.15426746010780334,-0.011043701320886612,-0.03850410506129265,453.8904113769531,0.0,0.0,2234.630615234375,3820.8095703125,0.0,-0.0,-178.87193298339844,0.2915458679199219,-1.3843274116516113,0.007040560245513916,6.985274314880371,0.016446780413389206,-0.16625723242759705,-0.03694656863808632,0.9910003542900085,0.9091641902923584,-0.1561281532049179,0.2304270714521408,3091.968505859375,1429.514892578125,0.0,2969.10986328125
1767783251.4116685,6969619580540723221,1095,27.110408782958984,37.683353424072266,54.47911071777344,53.497657775878906,-73.54434967041016,74.2812271118164,-15.322161674499512,3.0738980770111084,-5386.93359375,1382.097412109375,-5926.7685546875,6321.92626953125,29.988840103149414,28.406047821044922,9.944147109985352,10.09553337097168,2.0133919715881348,1.890843152999878,-0.0007609188905917108,2.4983608454931527e-05,-0.042784322053194046,-0.049810200929641724,-0.017239395529031754,-0.013956252485513687,25.975467681884766,412.98443603515625,1061.6221923828125,0.0,1154.0321044921875,4693.00146484375,-98.1434097290039,0.0,0.301513671875,-0.3152736723423004,0.14295516908168793,9.984358787536621,-0.06900801509618759,0.09279553592205048,-0.002996239811182022,-3.5923328399658203,2.392075777053833,0.1360936462879181,-0.0,1795.8546142578125,4198.3720703125,2442.844970703125,1796.37890625
1767783252.4583912,6969619580540723221,1116,30.251758575439453,28.42580223083496,53.05501937866211,53.54538345336914,-233.99583435058594,156.4231414794922,-104.07747650146484,54.26485824584961,-11987.1171875,6687.080078125,1226.0816650390625,7385.611328125,29.323049545288086,29.923439025878906,12.581904411315918,10.289599418640137,1.361636996269226,1.882304310798645,0.00010905248200288042,0.0020175208337605,0.467092901468277,0.541418194770813,0.08649708330631256,0.10875429958105087,-1326.487548828125,-0.0,-0.0,-1129.8104248046875,2412.847900390625,0.0,-0.0,31.60352897644043,0.3067474365234375,3.9256319999694824,0.07341297715902328,11.386125564575195,-0.0935029610991478,-1.4242298603057861,-0.002255164785310626,-8.626235008239746,-1.2101408243179321,-4.1147589683532715,-0.0,1967.5333251953125,2247.1396484375,1293.59912109375,1918.7740478515625
1767783253.5152652,6969619580540723221,1137,33.33069610595703,24.20969009399414,55.91991424560547,50.73713684082031,2.591118812561035,-79.06468963623047,23.691682815551758,-60.421974182128906,-2677.300048828125,-2884.396484375,847.409912109375,-2337.3515625,14.587249755859375,15.710338592529297,4.1565842628479,1.7112866640090942,1.8474446535110474,2.756377935409546,0.005256923381239176,0.0512005016207695,0.9333953857421875,0.9923436045646667,0.3282237946987152,0.37442609667778015,-2939.17431640625,-0.0,-3934.023681640625,-337.8905029296875,2073.393798828125,0.0,102.62262725830078,49.61275100708008,0.3032875061035156,5.090362071990967,0.0991927906870842,2.796013355255127,0.02741684392094612,-1.636955738067627,0.0007851589471101761,-2.423750400543213,-0.8984613418579102,5.785168170928955,-0.0,3684.0849609375,930.13232421875,3611.3154296875,109.9140853881836
1767783254.5179617,6969619580540723221,1157,29.314741134643555,25.70158576965332,53.063262939453125,54.53997039794922,2.786559820175171,-1.9057875871658325,-0.4720819890499115,0.2589399814605713,-9.352405548095703,-1.2753041982650757,-0.2146182805299759,-0.13760565221309662,0.0,0.0,0.0,0.0,-0.00036954230745323,-0.0007952326559461653,-0.0006205481477081776,-0.0010535859037190676,-0.0023336412850767374,-0.002344355219975114,-0.0011671929387375712,-0.0011223101755604148,-149.3148193359375,-69.40499877929688,-208.01268005371094,-307.2227478027344,173.1486053466797,109.30712127685547,-292.10272216796875,291.04205322265625,0.3047657012939453,-0.002850438468158245,0.001549316686578095,0.0013811275130137801,-0.001404734211973846,0.0020621763542294502,-0.0010241044219583273,0.02920069359242916,-0.01084422878921032,-0.017976200208067894,0.24409721791744232,2823.6767578125,2008.3465576171875,1717.435302734375,2502.869873046875
1767783255.5191832,6969619580540723221,1177,28.38402557373047,31.954784393310547,53.97354507446289,52.967018127441406,-8.338211059570312,-16.926897048950195,0.07190211117267609,-4.400214195251465,-134.87832641601562,-1586.7640380859375,-275.25885009765625,-60.058658599853516,19.38672637939453,18.92157745361328,1.1576313972473145,1.2922420501708984,3.3697948455810547,3.2463929653167725,-0.0009936701972037554,-0.0022329555358737707,-0.01263508666306734,-0.01433364674448967,0.00023856737243477255,-0.006431786343455315,-38.02875518798828,117.59257507324219,-50.56232452392578,406.50244140625,2243.63134765625,2738.510498046875,92.21585083007812,-143.042724609375,0.30292510986328125,0.051147982478141785,0.007868711836636066,1.2205476760864258,-0.020588507875800133,0.07158733159303665,0.01015685684978962,0.6025140285491943,0.5258532762527466,-0.24964211881160736,-0.15704457461833954,2161.4677734375,2562.177734375,2170.44921875,1496.3125
1767783256.5477002,6969619580540723221,1198,25.465412139892578,32.67396926879883,54.63861083984375,52.63507843017578,-35.53477478027344,-20.71185874938965,51.805091857910156,-20.624576568603516,1080.3055419921875,-638.53271484375,2828.3310546875,-136.5732879638672,30.426340103149414,29.732040405273438,4.55700159072876,5.70106840133667,4.302962303161621,3.634796380996704,-0.0006942033651284873,-0.003809899790212512,-0.19578176736831665,-0.18484733998775482,0.0012223228113725781,-0.06902682036161423,267.4777526855469,666.4713134765625,-82.44747161865234,1899.0455322265625,1613.1236572265625,3039.75146484375,94.8795394897461,-131.96295166015625,0.30434417724609375,0.005714119877666235,0.014934474602341652,4.930683612823486,0.00035344110801815987,0.722398042678833,0.012158314697444439,-0.7905524373054504,0.5220869779586792,0.6190919280052185,-0.30413997173309326,1677.391357421875,2968.131103515625,2564.51953125,1331.6478271484375
1767783257.5629983,6969619580540723221,1218,17.77696418762207,38.106143951416016,56.50068283081055,50.78886795043945,51.07394790649414,-97.75154876708984,43.67572021484375,3.1354002952575684,3811.832275390625,-1055.105712890625,3942.286376953125,1053.740234375,30.923969268798828,29.01101303100586,4.581943035125732,6.788196086883545,4.295489311218262,2.9754810333251953,0.00012234110909048468,0.0005942067946307361,-0.6258759498596191,-0.5466510057449341,-0.010394199751317501,-0.05444195866584778,0.0,1706.575927734375,760.0021362304688,0.0,0.0,2704.469482421875,-17.65739631652832,-0.0,0.2925224304199219,-2.103301525115967,0.0916338711977005,5.651734828948975,0.059316620230674744,1.3779950141906738,0.029466062784194946,0.4999335706233978,-1.0330731868743896,2.4692416191101074,-0.13712731003761292,446.72607421875,4003.791015625,4006.208740234375,486.6195983886719
1767783258.5997925,6969619580540723221,1239,36.11430358886719,24.0360164642334,50.98903274536133,56.14892578125,72.23929595947266,-56.59980010986328,10.067426681518555,41.302486419677734,3545.501220703125,-3397.4423828125,563.1804809570312,628.3994750976562,28.607990264892578,29.57406234741211,4.898282051086426,5.386128902435303,4.02747106552124,3.95224666595459,-1.5594871001667343e-05,-0.0006045029731467366,-0.4266800880432129,-0.4183502197265625,-0.008808815851807594,-0.016725944355130196,1066.2059326171875,686.3114624023438,0.0,1035.839111328125,2525.98681640625,1399.2430419921875,-0.0,-49.2220458984375,0.2986431121826172,-2.263254165649414,-0.021673958748579025,4.851439476013184,0.011008284986019135,0.28830716013908386,-0.010024127550423145,1.4587230682373047,-1.3667008876800537,0.4533105194568634,0.3403399884700775,3242.723388671875,1500.8538818359375,711.44140625,3659.089111328125
1767783259.6001992,6969619580540723221,1259,35.61981201171875,23.82876968383789,50.69065856933594,57.53385543823242,-190.46641540527344,86.45001983642578,-3.406311511993408,65.484130859375,-7406.23828125,4864.0390625,1456.6102294921875,5192.9931640625,21.249814987182617,22.09162139892578,8.076396942138672,7.628056526184082,1.6300312280654907,1.9409841299057007,-0.0035336948931217194,-0.0008537123794667423,-0.024754585698246956,-0.03305411338806152,0.013838239945471287,-0.00774646969512105,0.0,0.0,-0.0,690.0375366210938,0.0,0.0,-0.0,128.7550811767578,0.28854942321777344,-0.6845481395721436,0.09433627128601074,7.753781318664551,-0.1218678206205368,-0.271965891122818,-0.002315895864740014,-8.48044204711914,0.33722054958343506,2.88234281539917,0.1691376268863678,2961.26806640625,1206.341552734375,367.4149475097656,5000.240234375
1767783260.603919,6969619580540723221,1279,35.0302619934082,32.5592041015625,53.03873825073242,56.64725112915039,103.27603912353516,168.72425842285156,-45.56930923461914,92.96211242675781,6250.52294921875,5871.34130859375,3147.0791015625,-3514.147216796875,28.642913818359375,29.8073673248291,11.033307075500488,10.249198913574219,1.6792563199996948,1.9052931070327759,-0.0019886998925358057,-0.0009952082764357328,0.18269561231136322,0.18853741884231567,0.01573272980749607,0.020238779485225677,-1317.969970703125,-384.3446044921875,-1047.9736328125,-1274.0538330078125,5628.52587890625,2460.0947265625,-149.7989959716797,-136.090087890625,0.29996681213378906,1.1537578105926514,0.1899733990430832,10.617918968200684,-0.09558339416980743,-0.5002747774124146,-0.06852449476718903,-10.620927810668945,-0.3036358952522278,-1.6663926839828491,-0.0,4981.3076171875,3560.29296875,2163.65185546875,3616.658447265625
1767783261.6643996,6969619580540723221,1300,33.385047912597656,23.16438865661621,57.0092658996582,50.939483642578125,207.19622802734375,-153.10714721679688,9.825350761413574,15.483665466308594,3028.32763671875,-632.3212890625,793.3463745117188,1840.7587890625,9.238932609558105,9.357696533203125,9.629714965820312,9.900181770324707,0.00407310388982296,-0.008164772763848305,0.0010189618915319443,0.0011374830501154065,0.2598267197608948,0.24787132441997528,0.07869129627943039,0.04834151640534401,-6735.04052734375,-0.0,-3953.28271484375,-0.0,145.03793334960938,-0.0,98.47794342041016,-0.0,0.3040428161621094,2.60360050201416,0.0866989940404892,9.323787689208984,0.13882862031459808,0.15314528346061707,0.20089182257652283,6.858281135559082,2.1804425716400146,11.080655097961426,-0.22798271477222443,4839.96044921875,1211.6629638671875,4543.06982421875,646.0859985351562
1767783262.706839,6969619580540723221,1321,25.613712310791016,31.43526268005371,53.924774169921875,51.93629837036133,-12.890381813049316,134.81451416015625,45.96375274658203,-100.15570068359375,-2123.643310546875,11553.49609375,5628.56689453125,-1458.4874267578125,7.579851150512695,7.834766387939453,7.4544901847839355,7.949296951293945,0.024834752082824707,-0.0005122286966070533,-0.0004410910187289119,0.0015568009112030268,-0.0062804617919027805,-0.012135211378335953,-0.02039172872900963,-0.04259222373366356,321.7929992675781,1457.9449462890625,523.5895385742188,592.5958251953125,968.9447021484375,-57.73365020751953,-13.292427062988281,25.01678466796875,0.3018646240234375,0.4474267065525055,0.0320415198802948,7.6183762550354,0.06587657332420349,0.30003201961517334,-0.0072916774079203606,5.838520050048828,-0.5623472332954407,1.9000095129013062,-0.15835243463516235,1831.7236328125,4571.37890625,2082.470703125,890.5911254882812
1767783263.7069354,6969619580540723221,1341,28.13370704650879,34.422672271728516,54.00667190551758,53.62248229980469,-190.1156768798828,-130.15338134765625,16.389230728149414,-35.57205581665039,-25362.30859375,-13348.13671875,3065.972412109375,-1849.9512939453125,21.86104965209961,21.11795425415039,9.887721061706543,11.14870548248291,1.2668638229370117,0.9289371967315674,0.0007829074747860432,-0.0016788755310699344,-0.13890357315540314,-0.13135284185409546,-0.033851850777864456,-0.06530080735683441,0.0,0.0,0.0,2643.58154296875,0.0,0.0,0.0,-91.60004425048828,0.3062763214111328,-0.08587103337049484,0.11733663082122803,10.361578941345215,0.051467299461364746,0.8217472434043884,-0.0001449398696422577,2.9732253551483154,3.846651315689087,2.9158730506896973,-0.18288466334342957,427.5637512207031,2503.75390625,1848.4271240234375,2026.0712890625
1767783264.7143512,6969619580540723221,1361,31.059566497802734,32.912200927734375,51.93641662597656,55.20012283325195,-73.94448852539062,-28.2198543548584,-9.035900115966797,-49.426963806152344,-11959.869140625,-5742.7822265625,2212.5341796875,-384.75006103515625,14.63463020324707,14.742762565612793,11.869791030883789,10.41817855834961,0.3148098289966583,0.4666283130645752,-0.0035664255265146494,-0.002240109955891967,-0.04961501806974411,-0.06484168767929077,-0.2005646824836731,-0.24896281957626343,364.1814270019531,199.60073852539062,0.0,4083.333984375,2589.428955078125,1212.9051513671875,-0.0,-64.42365264892578,0.3034038543701172,-2.082927942276001,0.09271049499511719,10.751639366149902,-0.09775355458259583,-0.9299527406692505,-0.08815784007310867,-3.6117687225341797,0.356533020734787,-3.92700457572937,0.11932611465454102,2311.353271484375,2195.7294921875,1004.735595703125,2410.313232421875
1767783265.7553453,6969619580540723221,1382,27.347885131835938,27.376245498657227,54.06953430175781,54.176361083984375,38.80722427368164,-28.85215950012207,61.31800079345703,15.583051681518555,-2167.4453125,4546.86962890625,2405.33447265625,3934.860595703125,7.533633232116699,7.485481262207031,7.553494930267334,7.442440509796143,-0.00022601985256187618,0.000966204097494483,0.0021287775598466396,0.0006317742518149316,0.0013972306624054909,-0.004859616048634052,-0.03624569997191429,-0.03537899628281593,-173.83181762695312,510.6191711425781,901.1045532226562,2849.39794921875,15.394927978515625,-71.80479431152344,70.07679748535156,-82.12602996826172,0.30145263671875,-0.14597515761852264,0.04340510070323944,7.46193790435791,0.057620707899332047,-0.102741539478302,0.016409313306212425,3.1865081787109375,0.0551922582089901,3.721163749694824,-0.014333965256810188,2489.58056640625,2350.01220703125,1854.0711669921875,2960.0888671875
1767783266.7967327,6969619580540723221,1403,26.316364288330078,28.500568389892578,53.597171783447266,55.836517333984375,-61.54176712036133,181.75521850585938,-49.303707122802734,109.58052062988281,-1589.693359375,12691.259765625,967.411376953125,6576.31396484375,6.709237575531006,6.714753150939941,6.709446907043457,6.696581840515137,9.686381235951558e-05,0.0007847580127418041,-5.546002648770809e-05,-0.00010620146349538118,0.003798502264544368,-0.0019544099923223257,-0.005724471062421799,-0.002952738432213664,-260.7803039550781,256.9820861816406,274.59356689453125,420.8407897949219,-4.3428521156311035,-63.55329132080078,-5.613312244415283,-13.64882755279541,0.3076457977294922,-0.018792351707816124,0.0705379843711853,6.683836460113525,-0.009185882285237312,-0.0243268683552742,0.07927584648132324,-5.099634647369385,-0.07160140573978424,-3.3857860565185547,-0.0,1898.43701171875,3665.924560546875,2207.878662109375,3599.27001953125
1767783267.8103597,6969619580540723221,1424,26.483142852783203,28.429004669189453,54.1379280090332,52.615726470947266,-104.57225036621094,75.55913543701172,-7.292014122009277,-92.37224578857422,1139.926025390625,2338.301025390625,2449.440185546875,-4351.56591796875,5.364099979400635,5.361040115356445,5.366626739501953,5.3504638671875,0.0003548998502083123,0.000473252177471295,-0.0004039334016852081,-0.000798048626165837,0.0027824314311146736,-0.002762278774753213,-0.0022264786530286074,0.0004329733201302588,-194.91529846191406,411.5088806152344,72.38259887695312,-0.0,18.54728126525879,49.16657257080078,-18.626657485961914,-0.0,0.30672454833984375,0.0007526178378611803,0.06173093616962433,5.342409610748291,0.05161258205771446,-0.0065698688849806786,0.03396858647465706,1.0440764427185059,-0.06605369597673416,0.6639881730079651,-0.0,2009.0665283203125,2874.968994140625,2235.88818359375,1084.526611328125
1767783268.8516695,6969619580540723221,1445,28.194461822509766,28.162813186645508,54.01485824584961,54.128623962402344,65.33728790283203,-35.22673797607422,10.105829238891602,-11.527983665466309,1814.413330078125,-3073.0654296875,-1155.3277587890625,507.0278625488281,4.156967639923096,4.152641296386719,4.151066303253174,4.1537346839904785,0.00039857940282672644,-2.1127942090970464e-05,0.0005007421132177114,-8.53627934702672e-05,0.0025219798553735018,-0.0021838333923369646,-0.0005287368549033999,0.001624660100787878,-325.4599609375,148.37074279785156,-16.751625061035156,30.023103713989258,-33.79387664794922,-0.8946875929832458,32.5041389465332,-10.297224044799805,0.30460357666015625,-0.003757167374715209,0.02654670923948288,4.135087490081787,-0.056414492428302765,0.007453582249581814,-0.07583437114953995,1.0419378280639648,0.17710822820663452,-0.7835104465484619,-0.0,2768.538330078125,2093.281005859375,2025.3448486328125,2163.605712890625
1767783269.8933477,6969619580540723221,1466,27.210460662841797,26.65303611755371,53.906925201416016,53.83403396606445,18.479745864868164,-10.751920700073242,5.806216716766357,1.0424237251281738,2134.125244140625,1564.734619140625,1615.066650390625,224.49343872070312,2.9802587032318115,2.973172426223755,2.981416702270508,2.9778449535369873,0.0003505678032524884,0.0007246405584737659,0.0001968639116967097,9.700167720438913e-05,0.0013850152026861906,-0.0021356181241571903,-0.0042927260510623455,-0.0026760899927467108,-156.16456604003906,236.324951171875,188.0650634765625,235.83950805664062,22.712800979614258,50.744728088378906,19.7747745513916,-7.707953929901123,0.30499267578125,-0.020751910284161568,0.025056906044483185,2.9598472118377686,-0.002810562727972865,-0.016457736492156982,0.013191880658268929,-0.0010758116841316223,-0.04245166480541229,0.03834904730319977,-0.0,2380.11669921875,2415.312255859375,2046.96240234375,2336.906005859375
1767783270.895949,6969619580540723221,1486,28.01970863342285,26.39453125,53.242042541503906,54.58150863647461,-32.698097229003906,-19.641151428222656,-6.808727264404297,16.61325454711914,-2056.26318359375,199.72752380371094,792.6552124023438,474.7109375,1.9199354648590088,1.917777419090271,1.9210405349731445,1.9162925481796265,-1.2444617141227354e-06,0.0006854401435703039,9.303817932959646e-06,0.0005570126231759787,0.0016753957606852055,-0.0007856052252463996,-0.001924076466821134,-0.0008323038346134126,-132.54263305664062,117.48055267333984,69.35978698730469,144.33901977539062,-0.060605309903621674,49.88871383666992,-0.6229844093322754,54.012451171875,0.30552101135253906,-0.005050560925155878,0.021413646638393402,1.9008243083953857,-0.004150077700614929,-0.007773067802190781,-0.002297475468367338,-1.2371737957000732,-0.08951582759618759,-0.0047872671857476234,-0.0,2035.994873046875,2230.190185546875,1956.4039306640625,2577.100830078125
1767783271.9063008,6969619580540723221,1506,28.448640823364258,27.010025024414062,54.084320068359375,53.73252487182617,18.50486183166504,4.6446356773376465,8.068163871765137,-8.323128700256348,-480.4046630859375,409.0408020019531,-434.6435241699219,769.41943359375,0.9953346848487854,0.9942805171012878,0.9936959743499756,0.990760087966919,0.0002274491125717759,0.00014441531675402075,8.742055797483772e-05,-5.866320861969143e-05,0.00040375819662585855,-0.0008883907576091588,-0.0009564192150719464,-0.00036349345464259386,-81.54716491699219,124.61338806152344,9.691133499145508,72.8511962890625,-18.653221130371094,-11.351259231567383,-7.831507682800293,-4.947132110595703,0.3060932159423828,-0.0028443976771086454,0.018385058268904686,0.9775340557098389,0.02914687804877758,-0.004373155068606138,0.025406664237380028,1.5458495616912842,-0.06329881399869919,1.136669635772705,-0.0,2697.6630859375,2335.6328125,2305.985107421875,2091.973388671875
1767783272.91334,6969619580540723221,1526,27.383487701416016,26.98379898071289,53.60431671142578,54.211910247802734,-0.8048933744430542,-0.5960335731506348,-0.048559896647930145,0.032895416021347046,2.5619492530822754,9.518021583557129,-7.593166828155518,1.2818013429641724,0.0,0.0,0.0,0.0,0.0021697687916457653,0.0016633198829367757,0.0021802070550620556,0.0016523022204637527,-0.0003368034667801112,-0.00032281738822348416,0.0019750832580029964,0.001968667609617114,-287.9781188964844,364.21795654296875,124.0223159790039,182.45654296875,-132.10525512695312,-196.73753356933594,-57.8077507019043,-145.4104461669922,0.3063678741455078,-0.006350268609821796,-0.00035582296550273895,-0.003209168091416359,0.008356518112123013,-0.005381849594414234,0.0013683397555723786,0.017679980024695396,0.0004016199382022023,0.005571307614445686,-0.0,2386.6513671875,2299.963623046875,2004.13525390625,2398.72705078125
1767783273.945599,6969619580540723221,1547,26.773624420166016,26.55408477783203,53.5072021484375,54.2159423828125,-0.26090604066848755,-0.24909724295139313,-0.04056066274642944,-0.037308964878320694,3.441265106201172,0.917272686958313,-0.8187937140464783,-1.8089582920074463,0.0,0.0,0.0,0.0,0.0011202470632269979,0.0009386303136125207,0.0011259856401011348,0.0009359022951684892,-0.0003609447448980063,-0.0003537519078236073,0.0013827279908582568,0.0013795645209029317,-288.0442810058594,376.2656555175781,155.2449188232422,211.39707946777344,-73.7757339477539,-125.79205322265625,-36.161705017089844,-94.34650421142578,0.30682945251464844,-0.008926939219236374,0.002223712857812643,-0.002113852184265852,0.01290193386375904,-0.007560658734291792,0.002332689007744193,0.006141004152595997,-0.0014043914852663875,0.0003054136468563229,-0.0,2275.50244140625,2227.9423828125,1944.65380859375,2402.59765625
1767783274.9526582,6969619580540723221,1567,26.622615814208984,26.46860694885254,53.48246383666992,54.203182220458984,0.016044994816184044,0.0017641093581914902,0.10702263563871384,-0.03309804946184158,1.4831300973892212,1.368069052696228,8.461743354797363,-7.719878196716309,0.0,0.0,0.0,0.0,0.0005259080207906663,0.00042574619874358177,0.0005309809348545969,0.00042610280797816813,-0.00037236069329082966,-0.00036928142071701586,0.0012932762037962675,0.0012921369634568691,-310.0117492675781,364.6805114746094,160.7255401611328,211.80184936523438,-40.91480255126953,-122.74915313720703,-22.579299926757812,-119.45724487304688,0.30693626403808594,-0.008863383904099464,0.0026664219330996275,-0.0015721857780590653,0.014596749097108841,-0.008304026909172535,0.0025895920116454363,-0.003163888119161129,-0.003019483294337988,-0.0027291716542094946,-0.0,2252.98828125,2206.073974609375,1932.72119140625,2405.69189453125
1767783275.9527302,6969619580540723221,1587,26.592435836791992,26.429031372070312,53.47960662841797,54.22147750854492,-0.13904623687267303,-0.02975371666252613,0.02128857560455799,0.11633285135030746,-5.070132732391357,-1.4292269945144653,2.645413875579834,1.513093113899231,0.0,0.0,0.0,0.0,0.0001985351409530267,1.3207712072471622e-05,0.0002047045127255842,1.181049537990475e-05,-0.00033318804344162345,-0.0003325800644233823,0.0016683470457792282,0.0016683911671862006,-325.8315734863281,351.9217529296875,142.57376098632812,186.27952575683594,-27.16408348083496,-65.12932586669922,-17.75603675842285,-56.82184600830078,0.3069419860839844,-0.007806419860571623,0.0025784310419112444,-0.0011280106846243143,0.015414504334330559,-0.008091617375612259,0.0028677007649093866,-0.007275580428540707,5.104229421704076e-05,-0.002251989673823118,-0.0,2249.015380859375,2210.44970703125,1936.8819580078125,2406.38330078125
1767783277.0088584,6969619580540723221,1608,26.59005355834961,26.423908233642578,53.481876373291016,54.220489501953125,-0.026136616244912148,0.011360032483935356,-0.0037582062650471926,0.002733241068199277,2.5604939460754395,0.7908260226249695,-0.313153475522995,-1.611401081085205,0.0,0.0,0.0,0.0,0.00014516458031721413,2.7078201014774095e-07,0.00015035999240353703,-2.3154936457103759e-07,-0.00028854492120444775,-0.0002881786786019802,0.0014397361082956195,0.001439834712073207,-331.3756103515625,347.56195068359375,157.978271484375,203.00718688964844,-28.212697982788086,-61.829681396484375,-19.99437141418457,-54.34064865112305,0.3069438934326172,-0.007602817844599485,0.0025413052644580603,-0.0010302739683538675,0.015320240519940853,-0.008056879043579102,0.00286405673250556,-0.002625021617859602,0.0017646487103775144,-0.0010202783159911633,-0.0,2249.5927734375,2209.86279296875,1938.153564453125,2405.958984375
1767783278.0118725,6969619580540723221,1628,26.588958740234375,26.42223358154297,53.48175048828125,54.21944046020508,0.02180630713701248,0.010989004746079445,-0.007898347452282906,-0.008241754025220871,2.6412720680236816,0.5462101697921753,-0.9835737347602844,-0.5148981809616089,0.0,0.0,0.0,0.0,0.00014389128773473203,-4.5599490476888604e-06,0.00014924874994903803,-5.0822623052226845e-06,-0.0002972412039525807,-0.00029691276722587645,0.00144968181848526,0.0014497936936095357,-332.2396545410156,346.56201171875,157.65924072265625,202.8601837158203,-28.301612854003906,-60.8943977355957,-20.32598114013672,-53.89653778076172,0.3069419860839844,-0.007533620111644268,0.0025147036649286747,-0.0010298086563125253,0.015232402831315994,-0.00805909838527441,0.00285385362803936,0.0006908478680998087,0.00021686115360353142,-0.00015076615090947598,-0.0,2249.96533203125,2209.732421875,1937.863525390625,2405.094482421875
1767783279.0504553,6969619580540723221,1649,26.586273193359375,26.41946029663086,53.481719970703125,54.22005081176758,-0.017869992181658745,0.014589509926736355,-0.0001726569316815585,0.005007050931453705,0.3176695704460144,0.2569538652896881,-0.31144458055496216,1.6774072647094727,0.0,0.0,0.0,0.0,0.00014803759404458106,-9.488961950410157e-06,0.00015345661086030304,-1.028156384563772e-05,-0.0002845240233000368,-0.00028421508613973856,0.001455777557566762,0.001455905963666737,-333.5810241699219,345.3184814453125,157.9551239013672,202.91139221191406,-28.494972229003906,-60.78230285644531,-20.06256675720215,-53.90130615234375,0.3069419860839844,-0.007441199384629726,0.0024866347666829824,-0.0010270313359797,0.015153133310377598,-0.007996207103133202,0.002847320167347789,-0.0023965213913470507,-0.0008319042390212417,-0.0003998518513981253,-0.0,2249.263427734375,2209.1201171875,1937.9066162109375,2405.2294921875
1767783280.1114776,6969619580540723221,1670,26.583890914916992,26.422924041748047,53.47952651977539,54.21934127807617,0.05088090896606445,0.0002682649064809084,-0.00017884327098727226,-0.03272831812500954,1.7493646144866943,0.025797829031944275,0.017252115532755852,-1.347287654876709,0.0,0.0,0.0,0.0,0.00013585828128270805,1.678268199611921e-05,0.00014044927957002074,1.673386213951744e-05,-0.00027581825270317495,-0.0002754412416834384,0.0013296186225488782,0.001329711638391018,-335.25115966796875,343.6129150390625,166.95162963867188,213.29188537597656,-29.5427303314209,-60.54513168334961,-21.603445053100586,-54.054378509521484,0.3069419860839844,-0.00730232335627079,0.0023908372968435287,-0.001044408418238163,0.014548155479133129,-0.007903472520411015,0.0027330575976520777,0.003211220260709524,0.003188507165759802,0.0007209954201243818,-0.0,2249.6748046875,2209.404052734375,1935.8721923828125,2404.6162109375
1767783281.1555755,6969619580540723221,1691,26.577558517456055,26.422998428344727,53.478939056396484,54.22055435180664,0.019123103469610214,0.01668584533035755,0.006186886224895716,-0.009936514310538769,-0.4557355046272278,0.38744649291038513,0.9898097515106201,0.49874940514564514,0.0,0.0,0.0,0.0,0.00013178394874557853,3.301133983768523e-05,0.00013572798343375325,3.311346881673671e-05,-0.00025775557151064277,-0.00025732838548719883,0.0012141899205744267,0.0012142501072958112,-338.7322692871094,340.5586242675781,176.21360778808594,224.36233520507812,-30.587488174438477,-60.7994384765625,-23.251216888427734,-54.52085876464844,0.3069419860839844,-0.007157729007303715,0.0022882672492414713,-0.0010666848393157125,0.013779345899820328,-0.007808864116668701,0.0025781572330743074,-0.00045337690971791744,-0.0005843326798640192,6.237271736608818e-05,-0.0,2248.898681640625,2209.1259765625,1935.28515625,2405.336669921875
1767783282.2120354,6969619580540723221,1712,26.576589584350586,26.419506072998047,53.47931671142578,54.21963119506836,-0.020350774750113487,-0.001319031696766615,0.01563994772732258,0.011682852171361446,-1.024613857269287,1.6319838762283325,0.3807408809661865,0.24738553166389465,0.0,0.0,0.0,0.0,0.00014822800585534424,1.998128391278442e-05,0.00015263509703800082,1.935212276293896e-05,-0.00026049799635075033,-0.00026003806851804256,0.001260210177861154,0.0012602503411471844,-339.7441711425781,339.76190185546875,174.34072875976562,222.2875213623047,-30.49895477294922,-59.38653564453125,-23.03255271911621,-53.081905364990234,0.3069419860839844,-0.00689752958714962,0.002256223699077964,-0.0010465544182807207,0.013734874315559864,-0.0076379477977752686,0.002584700705483556,-0.0003856283437926322,0.0001521832891739905,-0.0003941902832593769,-0.0,2248.8642578125,2208.7490234375,1935.4423828125,2404.224365234375
1767783283.2518125,6969619580540723221,1733,26.58292579650879,26.42597007751465,53.47976303100586,54.21988296508789,0.12544268369674683,0.07638955116271973,-0.06019725278019905,-0.027431659400463104,12.402033805847168,7.626819133758545,-5.699890613555908,-4.221493244171143,0.0,0.0,0.0,0.0,0.00015278180944733322,2.0400040739332326e-05,0.00015723110118415207,1.9337016055942513e-05,-0.0003212959854863584,-0.00032080482924357057,0.0012802643468603492,0.0012802385026589036,-335.03131103515625,342.1837158203125,173.8800048828125,222.03805541992188,-30.52936553955078,-59.014225006103516,-22.976667404174805,-52.654884338378906,0.3069305419921875,-0.006874287035316229,0.0022627825383096933,-0.0010344405891373754,0.01365176122635603,-0.007639557588845491,0.002559938235208392,0.00768872257322073,-0.004046002868562937,0.001244366285391152,-0.0,2251.064208984375,2210.63916015625,1935.33544921875,2404.2080078125
1767783284.3025708,6969619580540723221,1754,26.579782485961914,26.42475700378418,53.48168182373047,54.22124099731445,-0.12679588794708252,-0.06015792861580849,0.050486236810684204,0.05164683982729912,-10.301218032836914,-7.919520854949951,5.583469390869141,4.520559787750244,0.0,0.0,0.0,0.0,0.0001153241828433238,4.58616777905263e-05,0.00011808910494437441,4.618171078618616e-05,-0.00014004335389472544,-0.0001395984145347029,0.0009012481314130127,0.0009012579103000462,-351.0999755859375,333.5875549316406,199.07704162597656,250.43055725097656,-32.965972900390625,-60.867733001708984,-25.997848510742188,-55.99573516845703,0.3069286346435547,-0.007095462176948786,0.0022288900800049305,-0.0010384394554421306,0.013437959365546703,-0.007569286040961742,0.002517914166674018,-0.008426123298704624,0.0030274572782218456,-0.0016240826807916164,-0.0,2248.947021484375,2209.0126953125,1937.5731201171875,2405.628662109375
1767783285.3582234,6969619580540723221,1775,26.586763381958008,26.425418853759766,53.48119354248047,54.2180061340332,0.07604290544986725,0.06583388149738312,-0.05476615950465202,-0.004198102746158838,-6.734873294830322,6.0236287117004395,-3.590914726257324,9.005865097045898,0.0,0.0,0.0,0.0,0.00014738143363501877,1.5954699847497977e-05,0.00015171182167250663,1.494652678957209e-05,-0.00028069366817362607,-0.0002802824601531029,0.0012672279262915254,0.001267223502509296,-338.7581481933594,339.75152587890625,174.8161163330078,222.8397979736328,-30.930503845214844,-58.82222366333008,-23.341745376586914,-52.381614685058594,0.30692481994628906,-0.006851778831332922,0.0022452976554632187,-0.001002280623652041,0.013766939751803875,-0.007573838345706463,0.002599978120997548,0.011469263583421707,-0.0004789653467014432,0.004259368870407343,-0.0,2251.25341796875,2210.65478515625,1936.0667724609375,2403.529052734375
1767783286.358333,6969619580540723221,1795,26.578487396240234,26.42618179321289,53.480682373046875,54.22191619873047,-0.03247500956058502,-0.0191984623670578,0.027126183733344078,-0.01222588587552309,1.426914095878601,-1.971248745918274,1.3226158618927002,-2.5613906383514404,0.0,0.0,0.0,0.0,0.00014368517440743744,2.6838148187380284e-05,0.00014775320596527308,2.6287629225407727e-05,-0.00025150677538476884,-0.00025104565429501235,0.0012146576773375273,0.0012146936496719718,-340.84930419921875,338.80419921875,177.88478088378906,226.78001403808594,-31.147315979003906,-59.83770751953125,-23.409809112548828,-53.3620719909668,0.30692481994628906,-0.006940342485904694,0.002272347453981638,-0.001061868155375123,0.013457372784614563,-0.00763539457693696,0.0025026595685631037,-0.0036429320462048054,-0.00019265322771389037,-0.0010821580654010177,-0.0,2249.086181640625,2209.74755859375,1936.359619140625,2405.69677734375
1767783287.3953502,6969619580540723221,1816,26.584157943725586,26.424135208129883,53.48124694824219,54.219181060791016,0.14130187034606934,0.06046272814273834,-0.06360488384962082,-0.0540831983089447,4.843880653381348,7.079290866851807,-6.469690799713135,-0.4589218199253082,0.0,0.0,0.0,0.0,0.00015608110697939992,1.8643921066541225e-05,0.00016079569468274713,1.7709931853460148e-05,-0.0003073282423429191,-0.00030684666126035154,0.0012889312347397208,0.0012889074860140681,-336.3365173339844,341.3689270019531,173.43597412109375,221.4093780517578,-30.397851943969727,-58.94038391113281,-22.76215171813965,-52.51124572753906,0.30692100524902344,-0.006890950724482536,0.002282453700900078,-0.0010304711759090424,0.013664093799889088,-0.007636673748493195,0.002554001286625862,0.011256160214543343,-0.0053446670062839985,0.003232315881177783,-0.0,2251.24560546875,2210.376953125,1935.991455078125,2403.559326171875
1767783288.4120104,6969619580540723221,1836,26.583887100219727,26.423656463623047,53.48136901855469,54.21821594238281,0.17401669919490814,0.05338285490870476,-0.047493644058704376,-0.10695568472146988,8.418280601501465,6.918169975280762,-4.7257843017578125,-3.8563454151153564,0.0,0.0,0.0,0.0,0.00015465317119378597,1.2992058145755436e-05,0.0001595302892383188,1.2049998986185528e-05,-0.00031083967769518495,-0.00031041476177051663,0.0013032100396230817,0.0013032201677560806,-336.172119140625,341.23785400390625,172.43788146972656,220.54690551757812,-30.480236053466797,-58.585628509521484,-22.794269561767578,-51.687652587890625,0.3069190979003906,-0.006833445280790329,0.0022822965402156115,-0.001017327536828816,0.013684216886758804,-0.007641068659722805,0.002559900749474764,0.012653209269046783,-0.004484421107918024,0.0032708989456295967,-0.0,2251.54052734375,2210.309814453125,1935.9371337890625,2403.572021484375
1767783289.4458065,6969619580540723221,1857,26.582294464111328,26.424236297607422,53.480682373046875,54.21946716308594,0.09317684173583984,0.041972409933805466,-0.052727244794368744,-0.038831617683172226,11.448025703430176,4.591475486755371,-5.65199613571167,-4.715960502624512,0.0,0.0,0.0,0.0,0.00015719101065769792,1.895830973808188e-05,0.0001616789522813633,1.7721278709359467e-05,-0.0003126926312688738,-0.0003121759509667754,0.0012827172176912427,0.00128268008120358,-336.059326171875,341.7716369628906,173.76766967773438,222.3079071044922,-29.925737380981445,-58.96669006347656,-22.716007232666016,-52.19215774536133,0.3069171905517578,-0.006820788141340017,0.002269085729494691,-0.0010241735726594925,0.013685953803360462,-0.007567792199552059,0.0025669708847999573,0.006862488575279713,-0.0012142970226705074,0.0011214056285098195,-0.0,2250.864501953125,2210.388427734375,1935.78466796875,2403.93896484375
1767783290.4554756,6969619580540723221,1877,26.57993507385254,26.424579620361328,53.481929779052734,54.220794677734375,-0.11485496908426285,-0.07053174078464508,0.051646195352077484,0.06320877373218536,-11.255422592163086,-7.099239349365234,5.451881408691406,5.902131080627441,0.0,0.0,0.0,0.0,0.00012201081699458882,4.020866981591098e-05,0.0001250398636329919,4.028740295325406e-05,-0.00014590087812393904,-0.00014546577585861087,0.0009337548981420696,0.0009337666560895741,-350.55792236328125,333.7603454589844,197.32241821289062,248.44744873046875,-32.595890045166016,-60.54371643066406,-25.808834075927734,-55.11082077026367,0.3069114685058594,-0.007063692901283503,0.002230660291388631,-0.0010361461900174618,0.013506508432328701,-0.007566159125417471,0.0025356272235512733,-0.008522103540599346,0.0011801299406215549,-0.0015242613153532147,-0.0,2248.86328125,2209.084716796875,1937.6875,2405.4775390625
1767783291.5005405,6969619580540723221,1898,26.580610275268555,26.424930572509766,53.481624603271484,54.22060775756836,0.02931535616517067,0.023925114423036575,0.003026101505383849,-0.018724001944065094,4.155243873596191,2.87300443649292,-1.1070902347564697,-2.4634780883789062,0.0,0.0,0.0,0.0,0.00015365221770480275,1.925327887875028e-05,0.00015830453776288778,1.8528955479268916e-05,-0.00027388837770558894,-0.000273435958661139,0.0012654419988393784,0.001265479950234294,-339.12310791015625,339.8479309082031,174.6003875732422,223.023193359375,-30.5905818939209,-59.37607955932617,-22.67274284362793,-52.64284133911133,0.3069133758544922,-0.00683028157800436,0.002310335636138916,-0.0010342824971303344,0.01360342651605606,-0.0075832451693713665,0.0025249244645237923,0.0023434318136423826,0.001782208331860602,-0.0004174719797447324,-0.0,2250.238037109375,2210.12060546875,1936.7115478515625,2404.9208984375
1767783292.5583558,6969619580540723221,1919,26.580774307250977,26.424928665161133,53.48197937011719,54.22087478637695,-0.01636960729956627,-0.027504747733473778,0.010849623009562492,0.028170952573418617,-3.963573932647705,-1.7667419910430908,0.7567375302314758,3.7618861198425293,0.0,0.0,0.0,0.0,0.00015108048683032393,1.9251787307439372e-05,0.00015555205754935741,1.8523640392231755e-05,-0.00025021639885380864,-0.0002497656096238643,0.001245894469320774,0.00124592543579638,-341.0977478027344,338.64501953125,176.05784606933594,224.5939178466797,-30.775779724121094,-59.43525695800781,-22.90519142150879,-52.737552642822266,0.30690956115722656,-0.006923133973032236,0.002283957088366151,-0.0010450022527948022,0.013578114099800587,-0.007596776820719242,0.002529909834265709,-0.0015546843642368913,-0.0015927532222121954,0.0005266707157716155,-0.0,2249.6484375,2209.6240234375,1937.08154296875,2405.11962890625
1767783293.5958478,6969619580540723221,1940,26.579179763793945,26.422945022583008,53.482425689697266,54.21995162963867,0.05624493584036827,-0.04062666743993759,0.05519094318151474,-0.03564415127038956,4.525703430175781,0.17672868072986603,2.445773124694824,-2.6497795581817627,0.0,0.0,0.0,0.0,0.00012896020780317485,4.5222524931887165e-05,0.0001325036573689431,4.568661825032905e-05,-0.0001879041810752824,-0.00018741194799076766,0.0009475824772380292,0.0009475916740484536,-346.8439025878906,335.9036560058594,195.9464111328125,246.9162139892578,-32.12669372558594,-60.696937561035156,-25.032503128051758,-55.76185607910156,0.30690574645996094,-0.006981628015637398,0.0022947995457798243,-0.00102498778142035,0.013456158339977264,-0.007547447457909584,0.002492679748684168,-0.0030546654015779495,0.003964022733271122,-0.0015999265015125275,-0.0,2249.79736328125,2209.0615234375,1937.69677734375,2404.86474609375
1767783294.6518152,6969619580540723221,1961,26.585010528564453,26.429182052612305,53.481727600097656,54.21980667114258,0.0750500038266182,0.07810547947883606,-0.04602303355932236,0.006301908753812313,-2.9255917072296143,3.208218574523926,-3.1254255771636963,5.273746967315674,0.0,0.0,0.0,0.0,0.00014275714056566358,1.571523716847878e-05,0.0001468569680582732,1.465277819079347e-05,-0.00027028287877328694,-0.0002698779571801424,0.0012618254404515028,0.0012618412729352713,-339.5978698730469,339.2794189453125,175.232666015625,223.28829956054688,-31.190086364746094,-58.84638595581055,-23.64713478088379,-52.396995544433594,0.3069000244140625,-0.006876806262880564,0.0022590160369873047,-0.0010155101772397757,0.013690861873328686,-0.0075755855068564415,0.002572883851826191,0.006724471226334572,0.0002386370615568012,0.0026834674645215273,-0.0,2251.0966796875,2211.295654296875,1936.674072265625,2404.6552734375
1767783295.7082577,6969619580540723221,1982,26.58086585998535,26.423423767089844,53.48293685913086,54.220211029052734,0.05778070539236069,0.07900821417570114,-0.08186393231153488,-0.06263542175292969,12.904742240905762,8.658049583435059,-7.460073471069336,-4.819573879241943,0.0,0.0,0.0,0.0,0.00015180592890828848,1.1940182048419956e-05,0.00015637528849765658,1.0702021427277941e-05,-0.00032383474172092974,-0.00032340394682250917,0.0012667762348428369,0.0012667729752138257,-334.6502685546875,342.423828125,174.2323455810547,222.9501953125,-30.20055389404297,-58.87960433959961,-22.5024356842041,-52.11255645751953,0.3069000244140625,-0.006924855522811413,0.0022910579573363066,-0.001001756521873176,0.013719308190047741,-0.0076983775943517685,0.002564799739047885,0.005648658610880375,-0.006639521569013596,0.001175140030682087,-0.0,2250.44970703125,2210.25146484375,1936.9278564453125,2405.08056640625
1767783296.7429879,6969619580540723221,2003,26.584062576293945,26.4268856048584,53.482425689697266,54.21909713745117,0.10717868059873581,0.0661761611700058,-0.07132531702518463,-0.07819085568189621,6.579535961151123,7.724193572998047,-6.663733005523682,-3.500776529312134,0.0,0.0,0.0,0.0,0.00015326417633332312,1.4181893675413448e-05,0.00015798298409208655,1.3145590855856426e-05,-0.0003142872592434287,-0.00031386525370180607,0.0012864614836871624,0.0012864641612395644,-335.79779052734375,341.5446472167969,173.57115173339844,221.5260467529297,-30.5362491607666,-58.65914535522461,-22.92945098876953,-52.20870590209961,0.30689430236816406,-0.006870485842227936,0.0022897322196513414,-0.001014780136756599,0.013642752543091774,-0.007639707997441292,0.0025452016852796078,0.010094963945448399,-0.00545879453420639,0.002973731607198715,-0.0,2251.078125,2211.03125,1936.52392578125,2404.233642578125
1767783297.7584713,6969619580540723221,2023,26.579830169677734,26.42539405822754,53.48230743408203,54.22084426879883,-0.039774052798748016,-0.013416606932878494,0.0030449037440121174,0.007231646217405796,-2.5982158184051514,-0.9516242146492004,0.34917566180229187,0.22420862317085266,0.0,0.0,0.0,0.0,0.00014982244465500116,1.9528875782270916e-05,0.0001542195095680654,1.876152600743808e-05,-0.0002566233742982149,-0.0002561737201176584,0.0012392349308356643,0.001239259378053248,-340.4534606933594,338.9816589355469,176.44253540039062,224.9619903564453,-30.81505012512207,-59.437557220458984,-22.99394989013672,-52.759952545166016,0.30689430236816406,-0.006918472237884998,0.0022879433818161488,-0.0010403644992038608,0.013580921106040478,-0.007605244871228933,0.0025288984179496765,-0.001464693807065487,-0.0008264534408226609,-2.073151154036168e-05,-0.0,2249.37353515625,2209.844970703125,1937.29052734375,2404.956298828125
1767783298.7924898,6969619580540723221,2044,26.584346771240234,26.42556381225586,53.48283386230469,54.21778869628906,0.05320228263735771,0.0240082498639822,-0.0028809900395572186,-0.02919403277337551,-3.4894888401031494,2.4585914611816406,1.047541856765747,4.396144390106201,0.0,0.0,0.0,0.0,0.00012605181836988777,3.5055763873970136e-05,0.00012946684728376567,3.498385922284797e-05,-0.0001992840552702546,-0.00019885333313141018,0.0009865526808425784,0.0009865363826975226,-346.024169921875,336.4479675292969,193.46612548828125,244.02362060546875,-32.27244567871094,-60.14939498901367,-25.121379852294922,-54.890480041503906,0.30689239501953125,-0.006992086302489042,0.002248247154057026,-0.0009990767575800419,0.013672403991222382,-0.007557069882750511,0.002572722965851426,0.003919250797480345,0.0003091542166657746,0.0019501540809869766,-0.0,2250.46240234375,2210.219482421875,1937.72216796875,2403.81298828125
1767783299.8091285,6969619580540723221,2064,26.57773780822754,26.425153732299805,53.481910705566406,54.22106170654297,-0.020281348377466202,0.006601004861295223,-0.02219468355178833,0.012819342315196991,0.0636753961443901,0.2555176317691803,-1.9259533882141113,0.2654007077217102,0.0,0.0,0.0,0.0,0.00014806581020820886,2.1724852558691055e-05,0.00015239535423461348,2.1022508008172736e-05,-0.0002610333322081715,-0.00026059281663037837,0.001229819725267589,0.0012298483634367585,-340.1040344238281,338.84576416015625,177.0017852783203,225.71035766601562,-30.899686813354492,-59.18071365356445,-23.115800857543945,-52.96271896362305,0.30689239501953125,-0.006861099973320961,0.002277430146932602,-0.001036271220073104,0.013481429778039455,-0.007580513134598732,0.0025079078041017056,-0.0013254625955596566,-0.0005626160418614745,-0.00024477529223077,-0.0,2249.19140625,2209.85498046875,1936.8638916015625,2405.227294921875
1767783300.8092816,6969619580540723221,2084,26.577747344970703,26.425785064697266,53.481239318847656,54.22072982788086,0.033126551657915115,-0.010756609961390495,-0.005521092098206282,-0.028557373210787773,1.6783320903778076,-1.0612081289291382,-0.45752471685409546,-0.6313141584396362,0.0,0.0,0.0,0.0,0.0001451390708098188,2.4589353415649384e-05,0.0001494965545134619,2.420377677481156e-05,-0.0002548673073761165,-0.00025440394529141486,0.0012338998494669795,0.0012339490931481123,-340.2541198730469,338.9031982421875,176.60757446289062,225.28195190429688,-30.66965675354004,-59.698482513427734,-23.25746726989746,-53.1334228515625,0.30689048767089844,-0.0069002555683255196,0.0022884784266352654,-0.0010524351382628083,0.013496874831616879,-0.0076164803467690945,0.0025060269981622696,0.0009153589489869773,0.0004756706184707582,0.00022908962273504585,-0.0,2249.37060546875,2209.895263671875,1936.468505859375,2404.91943359375
1767783301.8616693,6969619580540723221,2105,26.580087661743164,26.428476333618164,53.481536865234375,54.22126007080078,-0.06330540031194687,0.005442545749247074,-0.006110928487032652,0.08708073198795319,-8.756108283996582,-1.9469504356384277,1.9813289642333984,8.288263320922852,0.0,0.0,0.0,0.0,0.0001420490152668208,1.9448551029199734e-05,0.00014602058217860758,1.8566743165138178e-05,-0.0002362485829507932,-0.00023582730500493199,0.0012222303776070476,0.0012222683290019631,-342.22210693359375,337.575927734375,177.50367736816406,226.25473022460938,-31.26551055908203,-59.126319885253906,-23.508953094482422,-52.82731246948242,0.3068809509277344,-0.006881467066705227,0.002255047904327512,-0.0010359075386077166,0.013572443276643753,-0.007558638229966164,0.002542878268286586,-0.0025670675095170736,0.002266844268888235,-0.0005226395442150533,-0.0,2249.344970703125,2210.527099609375,1937.05029296875,2405.41748046875
1767783302.8969047,6969619580540723221,2126,26.57659339904785,26.424495697021484,53.482337951660156,54.221073150634766,-0.024776266887784004,0.0038264505565166473,-0.004783063195645809,0.008418191224336624,-1.7612624168395996,-0.19941745698451996,0.24316170811653137,0.8429389595985413,0.0,0.0,0.0,0.0,0.00014587117766495794,2.5757166440598667e-05,0.0001500609068898484,2.520844827813562e-05,-0.00025276787346228957,-0.0002523136790841818,0.001209100941196084,0.0012091279495507479,-340.74603271484375,338.8241882324219,178.308837890625,227.14842224121094,-31.0274658203125,-59.77103805541992,-23.29407501220703,-53.307098388671875,0.3068809509277344,-0.006953290663659573,0.0022791249211877584,-0.0010490131098777056,0.013480933383107185,-0.007635393645614386,0.002505948068574071,-0.002529092598706484,-0.0010651403572410345,-0.00022990988509263843,-0.0,2248.886474609375,2209.6357421875,1937.0455322265625,2405.24951171875
1767783303.9012954,6969619580540723221,2146,26.57695960998535,26.424240112304688,53.48100280761719,54.21974182128906,-0.0033282528165727854,-0.024248698726296425,0.00038037175545468926,-0.004374275449663401,-3.1670918464660645,-1.1993489265441895,-0.057802945375442505,1.6782715320587158,0.0,0.0,0.0,0.0,0.00014988830662332475,2.221374597866088e-05,0.0001542687095934525,2.158926145057194e-05,-0.00024885416496545076,-0.0002483944990672171,0.0012453582603484392,0.001245396095328033,-341.0778503417969,338.50054931640625,175.94915771484375,224.4774627685547,-30.826740264892578,-59.57674026489258,-22.962553024291992,-52.91808319091797,0.3068809509277344,-0.0069056544452905655,0.0022590646985918283,-0.0010539358481764793,0.013579868711531162,-0.007613010238856077,0.0025419569574296474,-0.00010755011317087337,-0.0008889050222933292,0.0007574152550660074,-0.0,2248.924560546875,2209.448974609375,1936.282958984375,2404.134521484375
1767783304.955714,6969619580540723221,2167,26.578828811645508,26.425315856933594,53.482452392578125,54.219783782958984,-0.11528103798627853,-0.046823903918266296,0.052881207317113876,0.035766925662755966,-12.86423397064209,-4.077823638916016,5.658226013183594,3.0451879501342773,0.0,0.0,0.0,0.0,0.0001290331856580451,4.3563843064475805e-05,0.00013220650725997984,4.358684236649424e-05,-0.00015999710012692958,-0.00015952975081745535,0.0009419804555363953,0.0009419838897883892,-349.24749755859375,334.5946350097656,196.51681518554688,247.4707489013672,-32.183006286621094,-60.70333480834961,-25.089479446411133,-55.672882080078125,0.30687713623046875,-0.007041264325380325,0.0022445996291935444,-0.0010255007073283195,0.013544359244406223,-0.007542917504906654,0.002539711771532893,-0.006255991291254759,0.0010415675351396203,-0.0008881038520485163,-0.0,2248.657958984375,2209.427734375,1937.993408203125,2404.70556640625
1767783305.9592345,6969619580540723221,2188,26.577783584594727,26.42669677734375,53.481510162353516,54.22031021118164,-0.002092343755066395,-0.009225333109498024,-0.0017119175754487514,-0.010461718775331974,-2.311814069747925,-1.4671539068222046,1.1117889881134033,0.810089111328125,0.0,0.0,0.0,0.0,0.00014340940106194466,2.6223211534670554e-05,0.00014763764920644462,2.5840019588940777e-05,-0.00025088241090998054,-0.00025043703499250114,0.0012236750917509198,0.0012237295741215348,-340.5335693359375,338.7034912109375,177.00840759277344,225.64378356933594,-30.765884399414062,-59.79183578491211,-23.1113224029541,-53.640201568603516,0.30687522888183594,-0.006982049904763699,0.0022804532200098038,-0.001053940155543387,0.01356192771345377,-0.007656673900783062,0.0025265789590775967,6.410179776139557e-05,-0.0006647470872849226,0.000740071467589587,-0.0,2248.99560546875,2209.8447265625,1936.6549072265625,2404.767333984375
1767783306.961462,6969619580540723221,2208,26.57535743713379,26.42398452758789,53.481563568115234,54.220703125,-0.021740907803177834,0.008259646594524384,-0.007025445811450481,0.00835458468645811,0.6651886701583862,0.34346967935562134,-0.028616255149245262,-1.5412906408309937,0.0,0.0,0.0,0.0,0.00014503567945212126,2.4076513000181876e-05,0.00014929947792552412,2.3559307010145858e-05,-0.00026148033794015646,-0.00026102381525561213,0.0012248423881828785,0.0012248827842995524,-339.6393127441406,339.21673583984375,176.866943359375,225.56541442871094,-30.65450668334961,-59.650184631347656,-23.003767013549805,-53.487483978271484,0.30687522888183594,-0.006883092690259218,0.0022894246503710747,-0.0010339322034269571,0.013585132546722889,-0.007603546604514122,0.0025295892264693975,-0.0016470872797071934,0.002860305830836296,-0.000853734090924263,-0.0,2248.6396484375,2209.520263671875,1936.7432861328125,2405.09765625
1767783308.0037978,6969619580540723221,2229,26.577102661132812,26.423961639404297,53.482200622558594,54.220279693603516,-0.03786781430244446,-0.01850682683289051,0.01024993509054184,0.017462853342294693,-2.7393991947174072,-0.2672310769557953,0.6564517617225647,2.1166582107543945,0.0,0.0,0.0,0.0,0.00014797691255807877,1.9881545085809194e-05,0.00015229478594847023,1.9169739971403033e-05,-0.0002541235589887947,-0.0002536661340855062,0.0012348785530775785,0.0012349102180451155,-340.2472839355469,338.8209228515625,176.3862762451172,224.93504333496094,-30.515724182128906,-59.450374603271484,-22.82664680480957,-53.16813278198242,0.3068714141845703,-0.006969749927520752,0.002276540733873844,-0.0010431114351376891,0.013652143068611622,-0.007647570688277483,0.0025527917314320803,-0.002564619295299053,-0.0020046215504407883,-3.356142042321153e-05,-0.0,2248.695068359375,2209.505615234375,1937.152099609375,2404.6396484375
1767783309.009019,6969619580540723221,2250,26.5762939453125,26.42321014404297,53.4813117980957,54.219356536865234,0.015855109319090843,-0.006700671277940273,-0.010381321422755718,-0.0007550052832812071,0.6596277952194214,-1.493990182876587,-0.7080308198928833,0.7761117219924927,0.0,0.0,0.0,0.0,0.00015114955021999776,1.558113217470236e-05,0.00015577307203784585,1.4877587091177702e-05,-0.0002545733004808426,-0.0002541349676903337,0.0012793403584510088,0.0012793985661119223,-340.2572326660156,338.7149658203125,173.52137756347656,221.63465881347656,-30.349658966064453,-59.20766830444336,-22.52382469177246,-52.70356750488281,0.3068714141845703,-0.006829406134784222,0.0022784387692809105,-0.0010378791484981775,0.013677608221769333,-0.007581436540931463,0.0025596637278795242,0.001082441653124988,0.0007362480973824859,0.000364490580977872,-0.0,2249.073486328125,2209.385986328125,1936.572021484375,2403.940185546875
1767783310.0482216,6969619580540723221,2271,26.578153610229492,26.42557144165039,53.48204040527344,54.219932556152344,-0.03454209864139557,-0.025173144415020943,0.01722373068332672,0.005867424886673689,-3.16007924079895,0.5466828346252441,0.12953254580497742,0.7760295271873474,0.0,0.0,0.0,0.0,0.000155183210154064,1.460502971895039e-05,0.00015978660667315125,1.3663476238434669e-05,-0.00025612639728933573,-0.0002556718827690929,0.0012740992242470384,0.001274135080166161,-340.42852783203125,338.92926025390625,174.22569274902344,222.48765563964844,-30.5244140625,-59.1798210144043,-22.590755462646484,-52.3000373840332,0.3068656921386719,-0.006865404080599546,0.002278797095641494,-0.0010431723203510046,0.013655652292072773,-0.00757934246212244,0.0025535807944834232,-0.0016917111352086067,-0.001163217006251216,4.684476607508259e-06,-0.0,2248.8515625,2209.939453125,1937.087646484375,2404.2587890625
1767783311.0589104,6969619580540723221,2292,26.57544708251953,26.42328453063965,53.481849670410156,54.21989059448242,-0.048831794410943985,-0.029147660359740257,0.0164665337651968,0.029526202008128166,-5.015081405639648,-1.5474642515182495,0.9317015409469604,2.774311065673828,0.0,0.0,0.0,0.0,0.0001467296970076859,1.7027268768288195e-05,0.00015104144404176623,1.628778045414947e-05,-0.00024579776800237596,-0.00024534689146094024,0.001246707048267126,0.0012467424385249615,-340.5378112792969,339.1176452636719,175.15835571289062,223.36297607421875,-30.199520111083984,-59.28771209716797,-22.90566062927246,-52.945152282714844,0.3068656921386719,-0.006957291159778833,0.002265128307044506,-0.0010406805668026209,0.01371436845511198,-0.007631151936948299,0.0025748973712325096,-0.0031128376722335815,-0.00229395879432559,6.822019349783659e-05,-0.0,2248.139892578125,2209.34375,1937.0811767578125,2404.356689453125
1767783312.1003468,6969619580540723221,2313,26.580347061157227,26.42542266845703,53.482666015625,54.217403411865234,0.04464292526245117,0.06119159609079361,0.013469848781824112,0.04560505971312523,-3.7012956142425537,-0.8060930371284485,0.5471999645233154,3.3956949710845947,0.0,0.0,0.0,0.0,0.00012042756861774251,4.186986552667804e-05,0.00012344049173407257,4.187778540654108e-05,-0.00020801617938559502,-0.00020757327729370445,0.0009609604021534324,0.0009609246044419706,-345.11480712890625,337.381103515625,195.05905151367188,245.8685302734375,-32.531349182128906,-60.85295867919922,-25.521970748901367,-55.44978713989258,0.3068580627441406,-0.007069617509841919,0.0022330726496875286,-0.0010054315207526088,0.013682635501027107,-0.007632625289261341,0.0025818757712841034,0.00019646735745482147,-0.0007562838727608323,0.0002906480513047427,-0.0,2249.55029296875,2210.15869140625,1937.697265625,2404.35693359375
1767783313.1042497,6969619580540723221,2333,26.57724380493164,26.423782348632812,53.48279571533203,54.220603942871094,-0.047086432576179504,0.00282518588937819,-0.003955260384827852,0.015444349497556686,-0.3467881977558136,0.7273287773132324,-0.4945942759513855,-0.8728364706039429,0.0,0.0,0.0,0.0,0.00015369546599686146,1.286806491407333e-05,0.000158306400408037,1.1908606211363804e-05,-0.00026123967836610973,-0.00026078891823999584,0.0012742142425850034,0.001274256850592792,-339.63592529296875,339.60272216796875,173.8854217529297,222.0609893798828,-30.195884704589844,-59.44195556640625,-22.38909912109375,-52.532962799072266,0.3068580627441406,-0.006897152867168188,0.0023064292035996914,-0.0010330707300454378,0.013732724823057652,-0.007610267959535122,0.0025608791038393974,-0.0027006424497812986,-0.0005673209088854492,-0.0008636476122774184,-0.0,2248.7919921875,2209.814208984375,1937.66162109375,2404.739990234375
1767783314.107642,6969619580540723221,2354,26.575021743774414,26.424890518188477,53.48152542114258,54.21942138671875,0.04180670902132988,0.0038956254720687866,0.00019003050692845136,-0.03021485172212124,1.6513863801956177,-0.705376923084259,0.26245173811912537,-0.9482780694961548,0.0,0.0,0.0,0.0,0.00014753069262951612,2.3319440515479073e-05,0.00015197844186332077,2.2889402316650376e-05,-0.0002574858663138002,-0.00025702264974825084,0.0012437028344720602,0.0012437511468306184,-339.972900390625,339.0376892089844,175.9984893798828,224.49107360839844,-30.5285701751709,-59.62687301635742,-23.092227935791016,-52.99858093261719,0.3068580627441406,-0.006870198994874954,0.0022779996506869793,-0.0010474197333678603,0.013546457514166832,-0.007610625587403774,0.002524604555219412,0.001961114816367626,0.0006271956954151392,0.00042402930557727814,-0.0,2249.0849609375,2209.765380859375,1936.5030517578125,2404.0458984375
1767783315.1437335,6969619580540723221,2375,26.57896614074707,26.42938804626465,53.48294448852539,54.22129440307617,-0.05948507785797119,-0.02193571999669075,0.01321890577673912,0.018199944868683815,-3.663144826889038,0.026419995352625847,0.07576114684343338,1.598453402519226,0.0,0.0,0.0,0.0,0.00014830743020866066,2.3265565687324852e-05,0.000152438398799859,2.245713767479174e-05,-0.00024994954583235085,-0.00024948138161562383,0.0012039848370477557,0.0012040013680234551,-340.98797607421875,338.48468017578125,178.70712280273438,227.57577514648438,-30.901639938354492,-59.32118225097656,-23.176225662231445,-53.152217864990234,0.3068523406982422,-0.006928482558578253,0.0022766871843487024,-0.0010397874284535646,0.013497354462742805,-0.007567028980702162,0.0025124000385403633,-0.0038066618144512177,0.0009610288543626666,-0.0003678064967971295,-0.0,2249.0712890625,2210.647705078125,1937.6275634765625,2405.26171875
1767783316.1482265,6969619580540723221,2395,26.57767105102539,26.425888061523438,53.48241424560547,54.219940185546875,-0.04767680913209915,-0.03229106590151787,0.015005848370492458,0.04235828295350075,-5.208573818206787,-0.5383161902427673,0.7363442778587341,3.195993423461914,0.0,0.0,0.0,0.0,0.0001516572228865698,1.7128424588008784e-05,0.00015606403758283705,1.6267120372503996e-05,-0.0002478449314367026,-0.00024738445063121617,0.001251479727216065,0.0012515141861513257,-340.7596435546875,338.50872802734375,175.74246215820312,223.76808166503906,-30.331605911254883,-59.32752990722656,-22.86577796936035,-52.91983413696289,0.3068523406982422,-0.0069105797447264194,0.002268868265673518,-0.0010398563463240862,0.01365130115300417,-0.007592553738504648,0.0025569177232682705,-0.0023333143908530474,-0.0016659577377140522,0.00019797272398136556,-0.0,2248.664306640625,2209.833251953125,1937.3489990234375,2404.37744140625
1767783317.2040672,6969619580540723221,2416,26.580068588256836,26.427000045776367,53.48243713378906,54.21732711791992,0.1896713525056839,0.06167402118444443,-0.04554389789700508,-0.10664862394332886,6.964110851287842,5.990921974182129,-5.819253444671631,-3.5950851440429688,0.0,0.0,0.0,0.0,0.00015546362556051463,1.3479742847266607e-05,0.00016035241424106061,1.256142058991827e-05,-0.00030533867538906634,-0.000304907705867663,0.001309271901845932,0.0013092850567772985,-336.46429443359375,341.06671142578125,172.09381103515625,219.69007873535156,-30.426828384399414,-58.64091873168945,-22.737764358520508,-52.05644989013672,0.30684661865234375,-0.006824326701462269,0.0022885019425302744,-0.001020360621623695,0.013680976815521717,-0.007623852230608463,0.0025563384406268597,0.012586529366672039,-0.0038261853624135256,0.0033161293249577284,-0.0,2250.83984375,2211.057861328125,1936.55419921875,2402.925048828125
1767783318.2049825,6969619580540723221,2436,26.578224182128906,26.427616119384766,53.48240280151367,54.219722747802734,-0.0459696389734745,-0.004739138297736645,0.028245262801647186,0.027676565572619438,-0.8259018063545227,1.436019778251648,1.4565693140029907,-0.9049936532974243,0.0,0.0,0.0,0.0,0.00015264766989275813,1.617840098333545e-05,0.00015711160085629672,1.5229137716232799e-05,-0.000260474014794454,-0.00026001775404438376,0.001254670089110732,0.0012546952348202467,-340.02325439453125,338.8581848144531,175.42881774902344,223.7886199951172,-30.640235900878906,-58.90337371826172,-22.786060333251953,-52.46342468261719,0.30684471130371094,-0.006874320097267628,0.0022791586816310883,-0.0010378292063251138,0.013642782345414162,-0.007591518573462963,0.00255000963807106,-0.0015795546351000667,0.00013622651749756187,-0.0008251075632870197,-0.0,2249.083740234375,2210.482421875,1937.4300537109375,2404.329833984375
1767783319.256105,6969619580540723221,2457,26.578672409057617,26.428089141845703,53.48372268676758,54.22023391723633,-0.0037465672940015793,-0.09798713773488998,0.05168341472744942,-0.021326614543795586,1.3543903827667236,-5.756251811981201,2.7736570835113525,-2.593494415283203,0.0,0.0,0.0,0.0,0.00012909849465359002,3.810685302596539e-05,0.00013262567517813295,3.82789658033289e-05,-0.00017210056830663234,-0.0001716387487249449,0.0009633121080696583,0.000963327765930444,-348.4864196777344,335.1512145996094,195.44790649414062,246.20790100097656,-31.757884979248047,-60.38523483276367,-25.3011417388916,-54.853179931640625,0.3068408966064453,-0.006999926175922155,0.0022855575662106276,-0.001034417888149619,0.013424605131149292,-0.007545883767306805,0.0024885241873562336,-0.0060921101830899715,0.0007218626560643315,-0.0016394953709095716,-0.0,2249.12158203125,2209.849609375,1938.6009521484375,2404.92236328125
1767783320.3070354,6969619580540723221,2478,26.577587127685547,26.42975425720215,53.482994079589844,54.22037887573242,-0.19855906069278717,-0.02606268785893917,0.05289760231971741,0.10791882872581482,-12.48274040222168,-7.369577407836914,6.196269989013672,4.1968770027160645,0.0,0.0,0.0,0.0,0.00011740779154933989,4.03348240070045e-05,0.00012015750689897686,4.028702460345812e-05,-0.00015247119881678373,-0.000152026375872083,0.0009219013736583292,0.0009219016064889729,-349.7764892578125,334.3434143066406,198.1238250732422,248.94508361816406,-32.793739318847656,-60.58061218261719,-26.125988006591797,-55.53589630126953,0.3068370819091797,-0.007077615242451429,0.002225527074187994,-0.0010316130938008428,0.013511957600712776,-0.007562306243926287,0.002539708511903882,-0.011302373372018337,0.0015689736464992166,-0.0026778685860335827,-0.0,2248.0498046875,2210.18212890625,1938.558837890625,2405.44091796875
1767783321.343875,6969619580540723221,2499,26.578344345092773,26.42892837524414,53.48286819458008,54.22026824951172,0.0321325920522213,-0.004360174760222435,-0.003033165354281664,-0.02540276013314724,5.237487316131592,1.5525420904159546,-1.2822043895721436,-3.120596170425415,0.0,0.0,0.0,0.0,0.00015584268840029836,1.510450692876475e-05,0.0001605580619070679,1.4181578080751933e-05,-0.0002737129107117653,-0.000273255369393155,0.001271874294616282,0.0012719124788418412,-338.9524841308594,339.58221435546875,174.3234405517578,222.588134765625,-30.448915481567383,-58.82579803466797,-22.5456485748291,-52.340457916259766,0.3068351745605469,-0.006783613935112953,0.0023078718222677708,-0.0010307517368346453,0.013562227599322796,-0.007533810567110777,0.0025159581564366817,0.0013285264139994979,0.0014024360571056604,-0.0005772492731921375,-0.0,2249.81396484375,2210.794677734375,1937.4398193359375,2404.466796875
1767783322.357017,6969619580540723221,2519,26.58016014099121,26.43030548095703,53.48282241821289,54.220237731933594,-0.11848678439855576,0.04749026894569397,-0.005733231548219919,0.1406552791595459,-8.596179008483887,-1.5784775018692017,3.3083462715148926,6.577589988708496,0.0,0.0,0.0,0.0,0.00014179988647811115,1.696461549727246e-05,0.00014570335042662919,1.5871224604779854e-05,-0.00025472050765529275,-0.00025429503875784576,0.0012222264194861054,0.0012222459772601724,-340.61932373046875,338.5469665527344,177.8892059326172,226.20571899414062,-31.231399536132812,-58.956085205078125,-23.818025588989258,-52.64349365234375,0.30683135986328125,-0.0068892063573002815,0.0022529619745910168,-0.001021185191348195,0.013637264259159565,-0.007566442713141441,0.0025614274200052023,-0.004290320444852114,0.0009134471183642745,-0.0012924615293741226,-0.0,2249.07568359375,2210.868896484375,1937.9439697265625,2405.161865234375
1767783323.4084644,6969619580540723221,2540,26.58392333984375,26.429594039916992,53.48261260986328,54.216346740722656,0.09189344942569733,0.07275687903165817,-0.05570448562502861,-0.02501017600297928,-4.523379325866699,6.51572322845459,-2.5989737510681152,6.397947311401367,0.0,0.0,0.0,0.0,0.00015079839795362204,9.511383723292965e-06,0.00015546393115073442,8.40011580294231e-06,-0.000294314551865682,-0.0002939189726021141,0.0013063218211755157,0.0013063333462923765,-337.8228759765625,340.4790344238281,172.30564880371094,220.20626831054688,-30.31411361694336,-58.461273193359375,-23.03293800354004,-51.42013931274414,0.30682945251464844,-0.006770786363631487,0.0022690363693982363,-0.000989468302577734,0.013839032500982285,-0.007547446526587009,0.0026089553721249104,0.014016498811542988,0.0009094846900552511,0.004197304602712393,-0.0,2250.969482421875,2211.611328125,1936.900146484375,2402.57373046875
1767783324.4602118,6969619580540723221,2562,26.577590942382812,26.42845344543457,53.48222351074219,54.21873474121094,0.05303497985005379,0.07256411015987396,-0.04958866164088249,-0.02603883482515812,10.224163055419922,6.842277526855469,-5.301328182220459,-3.291806936264038,0.0,0.0,0.0,0.0,0.0001506839762441814,1.4599327187170275e-05,0.00015499511209782213,1.3282520740176551e-05,-0.00031063141068443656,-0.00031020172173157334,0.001263920683413744,0.0012639181222766638,-336.2664489746094,341.3880310058594,175.01858520507812,223.4275665283203,-30.273725509643555,-58.69474792480469,-23.155454635620117,-51.928897857666016,0.30682945251464844,-0.0068366508930921555,0.0022464755456894636,-0.00100699404720217,0.013654140755534172,-0.007611357141286135,0.002569404197856784,0.0038412068970501423,-0.003478888887912035,0.0009889013599604368,-0.0,2249.747802734375,2211.10205078125,1936.6768798828125,2404.27001953125
1767783325.5094275,6969619580540723221,2583,26.578624725341797,26.429433822631836,53.483882904052734,54.2202262878418,-0.02147194929420948,-0.0468740314245224,0.045052751898765564,-0.005559701472520828,3.233259677886963,-1.3941041231155396,1.6102521419525146,-3.1192710399627686,0.0,0.0,0.0,0.0,0.00013221101835370064,3.723329064087011e-05,0.00013576234050560743,3.71937348973006e-05,-0.0001911313593154773,-0.00019065570086240768,0.0009716019849292934,0.0009716075728647411,-346.4173583984375,336.2314147949219,194.8455810546875,245.6063232421875,-31.92394256591797,-60.31351852416992,-25.089616775512695,-54.7564811706543,0.3068256378173828,-0.006975003518164158,0.0022913089487701654,-0.0010279256384819746,0.01346215046942234,-0.007542598061263561,0.0024961093440651894,-0.007049461826682091,0.0008944888249970973,-0.002789184683933854,-0.0,2249.13818359375,2210.445068359375,1938.739013671875,2405.176025390625
1767783326.552735,6969619580540723221,2604,26.57636070251465,26.42696189880371,53.48314666748047,54.218711853027344,-0.023661088198423386,-0.09004624933004379,0.0534529872238636,-0.014369082637131214,-4.139986515045166,-4.947128772735596,2.1848344802856445,1.9263547658920288,0.0,0.0,0.0,0.0,0.00012749478628393263,4.387422450236045e-05,0.00013093886082060635,4.433977301232517e-05,-0.00015921395970508456,-0.00015874019300099462,0.0009551241528242826,0.0009551441762596369,-348.6775817871094,334.955322265625,195.62860107421875,246.0112762451172,-31.842132568359375,-61.08351135253906,-25.12274932861328,-56.01628494262695,0.3068275451660156,-0.007072205655276775,0.002264241687953472,-0.0010471957502886653,0.013497077859938145,-0.007587175350636244,0.0025169597938656807,-0.004594801459461451,0.00017499146633781493,-0.0003464265901129693,-0.0,2248.204833984375,2209.516845703125,1938.072509765625,2403.958740234375
1767783327.6052978,6969619580540723221,2625,26.57699203491211,26.427562713623047,53.48286819458008,54.21934509277344,0.048699866980314255,-0.030165551230311394,0.007186776492744684,-0.044255416840314865,2.269731044769287,-0.19481556117534637,0.7701905965805054,-2.3239669799804688,0.0,0.0,0.0,0.0,0.00015720684314146638,1.3620906429423485e-05,0.00016205565771088004,1.2765361134370323e-05,-0.00026563077699393034,-0.0002651751274242997,0.0012920325389131904,0.0012920732842758298,-339.56976318359375,339.0070495605469,173.34507751464844,221.0792999267578,-30.384939193725586,-58.74068832397461,-22.69270133972168,-52.16313171386719,0.3068218231201172,-0.006761422846466303,0.00230426131747663,-0.0010352303506806493,0.013590577989816666,-0.007528658956289291,0.002525267656892538,0.0024026529863476753,0.0010906643001362681,0.0002487239253241569,-0.0,2249.48974609375,2210.351806640625,1937.437744140625,2403.721923828125
1767783328.6551962,6969619580540723221,2648,26.575424194335938,26.429466247558594,53.482112884521484,54.220359802246094,-0.007830332033336163,-0.0022918046452105045,0.006875413935631514,0.021008208394050598,3.9590885639190674,-1.4207514524459839,0.7836334705352783,-3.2051098346710205,0.0,0.0,0.0,0.0,0.0001477056066505611,1.9162447642884217e-05,0.00015195216110441834,1.8278369680047035e-05,-0.0002677913580555469,-0.0002673288690857589,0.0012405456509441137,0.0012405755696818233,-339.3590087890625,339.2609558105469,176.61329650878906,225.21778869628906,-30.877653121948242,-59.04294204711914,-23.398149490356445,-52.370487213134766,0.3068218231201172,-0.006842602510005236,0.0022671581245958805,-0.001043087337166071,0.013500289991497993,-0.007580234203487635,0.0025179514195770025,-0.003219030564650893,-0.00028726336313411593,-0.0015361058758571744,-0.0,2248.951904296875,2210.6142578125,1937.2532958984375,2404.83203125
