timestamp,session_uid,frame,suspension_pos_rl,suspension_pos_rr,suspension_pos_fl,suspension_pos_fr,suspension_vel_rl,suspension_vel_rr,suspension_vel_fl,suspension_vel_fr,suspension_acc_rl,suspension_acc_rr,suspension_acc_fl,suspension_acc_fr,wheel_speed_rl,wheel_speed_rr,wheel_speed_fl,wheel_speed_fr,wheel_slip_ratio_rl,wheel_slip_ratio_rr,wheel_slip_ratio_fl,wheel_slip_ratio_fr,wheel_slip_angle_rl,wheel_slip_angle_rr,wheel_slip_angle_fl,wheel_slip_angle_fr,wheel_lat_force_rl,wheel_lat_force_rr,wheel_lat_force_fl,wheel_lat_force_fr,wheel_long_force_rl,wheel_long_force_rr,wheel_long_force_fl,wheel_long_force_fr,height_of_cog,local_velocity_x,local_velocity_y,local_velocity_z,angular_velocity_x,angular_velocity_y,angular_velocity_z,angular_acceleration_x,angular_acceleration_y,angular_acceleration_z,front_wheels_angle,wheel_vert_force_rl,wheel_vert_force_rr,wheel_vert_force_fl,wheel_vert_force_fr
1767772900.503243,13480315681547253999,0,30.464082717895508,30.953054428100586,53.68821716308594,53.668033599853516,-1.7660770416259766,0.3376860022544861,-1.5175025463104248,-0.5115317702293396,-93.36713409423828,-272.74969482421875,-108.87843322753906,-298.125,0.0,0.0,0.0,0.0,-0.00045751442667096853,-0.0003980275068897754,-0.00045698657049797475,-0.0003954760904889554,-0.00017206784104928374,-0.00017422983364667743,-0.00022655489738099277,-0.00022619565424975008,-95.11820983886719,175.6424102783203,-72.89827728271484,197.1402130126953,-54.877952575683594,-38.843631744384766,102.73462677001953,120.28681182861328,0.3015117645263672,0.0021487909834831953,-0.003222967265173793,0.0002688816748559475,-0.0030323753599077463,0.0007077156333252788,-0.0002838812069967389,-0.28685495257377625,0.08291085064411163,-0.4784020185470581,-0.0,2337.5380859375,2463.18359375,2041.0340576171875,2059.77978515625
1767772901.5149236,13480315681547253999,20,27.48444175720215,27.811532974243164,53.739192962646484,53.61130905151367,2.5076329708099365,-1.9863054752349854,1.5517945289611816,-1.7495909929275513,272.3090515136719,-131.8342742919922,151.508056640625,-141.69471740722656,0.0,0.0,0.0,0.0,-0.0005179529543966055,-0.0004335994308348745,-0.0005189446965232491,-0.0004310963850002736,1.3491068784787785e-05,1.0126698725798633e-05,1.76028970599873e-05,1.9129080101265572e-05,-91.66980743408203,137.05368041992188,-89.0819320678711,146.47296142578125,-39.45808410644531,-30.78156089782715,117.713623046875,124.25535583496094,0.30426025390625,-8.644149784231558e-05,-0.0005147758638486266,0.000829819415230304,0.002984065329656005,0.00020850097644142807,0.006261058617383242,-0.11910916864871979,0.06765063107013702,-0.06798731535673141,-0.0,2405.48486328125,2447.677734375,2094.30224609375,2014.548583984375
1767772902.5630822,13480315681547253999,41,27.76959991455078,28.086057662963867,53.68613815307617,53.55292892456055,0.04379551485180855,-0.005398052278906107,0.011610903777182102,-0.030758710578083992,5.250141143798828,0.875707745552063,0.3035082519054413,-3.4823927879333496,0.0,0.0,0.0,0.0,-0.00048432082985527813,-0.00045535049866884947,-0.0004853652499150485,-0.00045531668001785874,-9.900559962261468e-05,-0.00010265865421388298,1.5733277905383147e-05,1.7320140614174306e-05,-94.79183959960938,140.49594116210938,-74.13054656982422,158.691650390625,-45.5541877746582,-29.1330623626709,114.13396453857422,123.8459701538086,0.3041038513183594,-6.123279308667406e-05,-1.5498018910875544e-05,-0.00023637125559616834,0.003831462934613228,-0.0015613354044035077,0.00020874611800536513,-0.0023047644644975662,0.00028781546279788017,6.0653288528556004e-05,-0.0,2446.39794921875,2513.1953125,2045.33935546875,1984.1328125
1767772903.5667748,13480315681547253999,61,27.7645206451416,28.062244415283203,53.69737243652344,53.552059173583984,0.007467332761734724,-0.014730080962181091,0.012070482596755028,-0.010229222476482391,2.9645378589630127,0.01651267521083355,0.8859793543815613,-2.904273271560669,0.0,0.0,0.0,0.0,-0.00046686481800861657,-0.00046686347923241556,-0.00046711161849088967,-0.0004676170938182622,-0.0001503461244283244,-0.00015396380331367254,4.938764323014766e-05,5.096314271213487e-05,-95.08609771728516,139.88084411621094,-71.5675048828125,161.193115234375,-47.235721588134766,-27.760082244873047,113.54354095458984,124.29004669189453,0.3041038513183594,-0.00016801491437945515,0.0001612234191270545,-0.00027215215959586203,0.003886275691911578,-0.0016010573599487543,0.0007725610048510134,-0.001394895138218999,0.0004100319929420948,0.0007833634736016393,-0.0,2444.96728515625,2508.3017578125,2052.44287109375,1984.9505615234375
1767772904.6101177,13480315681547253999,82,27.759389877319336,28.046350479125977,53.70459747314453,53.55271911621094,-0.00561067508533597,-0.023564834147691727,0.015505866147577763,0.013873669318854809,2.779369592666626,-0.1942335069179535,1.4339371919631958,-1.4553674459457397,0.0,0.0,0.0,0.0,-0.0004604723653756082,-0.00047560600796714425,-0.00046032905811443925,-0.0004768103244714439,-0.00018260732758790255,-0.00018627250392455608,7.021765486570075e-05,7.181680120993406e-05,-93.9060287475586,139.96261596679688,-69.810302734375,162.19970703125,-48.04310607910156,-26.942123413085938,113.31362915039062,124.64791870117188,0.3041038513183594,-0.0002589240903034806,0.00027720542857423425,-0.00026711015379987657,0.003961797803640366,-0.0016341481823474169,0.0011979672126471996,0.0037003038451075554,0.0001664393930695951,0.006810843013226986,-0.0,2443.7548828125,2505.186767578125,2057.037353515625,1986.374267578125
1767772905.6143804,13480315681547253999,102,27.755067825317383,28.03969955444336,53.70750045776367,53.55339431762695,0.018615053966641426,0.010432613082230091,0.002659293357282877,-0.01902417652308941,3.8088691234588623,-0.25756388902664185,0.7813909649848938,-2.906153678894043,0.0,0.0,0.0,0.0,-0.00045742621296085417,-0.0004743319295812398,-0.00045707961544394493,-0.0004754652036353946,-0.00018804596038535237,-0.00019166359561495483,6.767644663341343e-05,6.925276102265343e-05,-94.1401138305664,139.10166931152344,-68.49077606201172,163.1060028076172,-48.20719909667969,-26.408292770385742,113.4148178100586,125.16382598876953,0.3041038513183594,-0.00029545443248935044,0.0003193790325894952,-0.0002961368300020695,0.003838582197204232,-0.0016782062593847513,0.0011488926829770207,-0.003916615154594183,0.00034232009784318507,-0.0006148273823782802,-0.0,2443.19775390625,2503.771484375,2058.7587890625,1987.0048828125
1767772906.6154468,13480315681547253999,122,27.757787704467773,28.07247543334961,53.680076599121094,53.543636322021484,0.0167094599455595,0.008816034533083439,-0.010046178475022316,0.0016401924658566713,-0.25278523564338684,-0.06154852733016014,0.2813107967376709,0.5750125050544739,0.0,0.0,0.0,0.0,-0.00047562181134708226,-0.0004996014758944511,-0.000475285662105307,-0.0005008645239286125,-0.00017654499970376492,-0.00018029384955298156,0.00010137884964933619,0.00010300663416273892,-96.27127075195312,137.2656707763672,-70.19190216064453,160.2154541015625,-50.329219818115234,-27.91530418395996,109.73123168945312,122.1904525756836,0.3041191101074219,-7.561923848697916e-05,0.00027988944202661514,-6.438203854486346e-05,0.0039243996143341064,-0.001685834489762783,0.00016501930076628923,-8.623824396636337e-05,0.0001767050998751074,0.0004061790823470801,-0.0,2443.637451171875,2509.67578125,2039.9111328125,1978.531005859375
1767772907.619203,13480315681547253999,142,27.758670806884766,28.077728271484375,53.67647933959961,53.54188537597656,0.02344241552054882,0.0025931873824447393,-0.01265475433319807,-0.029873520135879517,0.5390224456787109,-0.010022863745689392,-0.5331292748451233,-0.851401686668396,0.0,0.0,0.0,0.0,-0.000477111927466467,-0.0005000365781597793,-0.00047678322880528867,-0.0005012113251723349,-0.00016815730486996472,-0.0001718848361633718,0.00010114315955433995,0.0001027606485877186,-97.22053527832031,136.3380584716797,-70.09141540527344,160.8111572265625,-50.44354248046875,-27.9314022064209,109.44363403320312,122.4490966796875,0.3041191101074219,-4.381774488138035e-05,0.0002628221991471946,-2.549433338572271e-05,0.0038842218928039074,-0.0016648982418701053,6.619468331336975e-05,-0.0020455841440707445,0.0013080232311040163,0.00040838003042154014,-0.0,2443.874755859375,2510.5244140625,2037.359130859375,1977.0975341796875
1767772908.6578653,13480315681547253999,163,27.756792068481445,28.079057693481445,53.67454147338867,53.54237747192383,-0.019353242591023445,-0.005529498215764761,-0.0006143886712379754,0.023551564663648605,-1.966274380683899,-1.2403703927993774,0.9423384666442871,2.407053232192993,0.0,0.0,0.0,0.0,-0.0004800177412107587,-0.0005069934413768351,-0.000479737704154104,-0.0005083972937427461,-0.00017638433200772852,-0.00018017918046098202,0.00011483781418064609,0.00011648474173853174,-96.15760040283203,137.130615234375,-71.09076690673828,159.58726501464844,-50.68405532836914,-28.60720443725586,108.96372985839844,121.57606506347656,0.3041191101074219,-2.180576848331839e-05,0.00024007467436604202,4.609589268511627e-06,0.003926705569028854,-0.0016865073703229427,-2.782990486593917e-05,0.0032573991920799017,-0.00040358296246267855,0.0018110581440851092,-0.0,2443.039794921875,2510.64599609375,2036.3255615234375,1977.497802734375
1767772910.5132217,13480315681547253999,167,30.345888137817383,30.743938446044922,53.838436126708984,53.77035140991211,-14.212602615356445,-13.407071113586426,6.166150093078613,6.692309856414795,-477.9964904785156,-398.3197937011719,106.84605407714844,123.36894226074219,0.9567524790763855,0.8622039556503296,0.9282285571098328,0.9177221655845642,-0.00467631546780467,0.002227333141490817,4.9263286200584844e-05,-0.00021854521764907986,0.0002719540789257735,-0.0011084509314969182,-0.0002851453027687967,0.00022589242144022137,-108.41004943847656,244.1236114501953,-61.06203842163086,67.16410827636719,-609.8958129882812,-298.9144287109375,7.567902565002441,33.38562774658203,0.3019447326660156,-0.0008923173882067204,0.0230222437530756,0.9086013436317444,-0.03482888266444206,0.0017202149610966444,0.01602337509393692,-0.630551278591156,0.06517667323350906,0.31433361768722534,-0.0,2620.9931640625,2728.037353515625,2273.567138671875,2247.75830078125
1767772911.520259,13480315681547253999,187,32.621639251708984,33.06084060668945,53.3212776184082,53.24435043334961,17.554611206054688,16.329288482666016,-0.5163252353668213,-1.317188024520874,-158.4916229248047,-235.0284423828125,-142.73373413085938,-153.6503143310547,2.619203805923462,2.5060503482818604,1.4409968852996826,1.5244674682617188,0.1468084156513214,0.13599719107151031,-0.001868825638666749,-0.0030518705025315285,0.0003810697526205331,-0.0017782564973458648,-0.0005320035270415246,0.00024200149346143007,-138.621826171875,218.28604125976562,-17.26954460144043,44.153831481933594,5331.70849609375,5462.95068359375,227.76187133789062,-363.47900390625,0.3012523651123047,-0.002438273746520281,0.0016937232576310635,1.4926905632019043,0.005106979049742222,0.00012254813918843865,-0.002764154924079776,-0.01898157224059105,0.005910852923989296,-0.06372684985399246,-0.0,2878.4482421875,2962.126708984375,1746.8704833984375,1698.076416015625
1767772912.526107,13480315681547253999,207,32.69319534301758,32.4804573059082,53.21441650390625,53.434513092041016,-0.5392248034477234,-1.7349656820297241,-2.7010440826416016,-2.68274188041687,17.065046310424805,58.43745422363281,-222.4214630126953,-151.5869140625,28.70600700378418,28.727445602416992,10.764153480529785,10.913556098937988,1.7125428915023804,1.6962779760360718,-0.0014237214345484972,-0.00215985719114542,-0.013051705434918404,-0.02069205418229103,-0.0024672800209373236,0.00034077768214046955,-91.32585906982422,244.61256408691406,146.7751922607422,74.03996276855469,4495.59033203125,4482.6767578125,166.6533660888672,-268.7151794433594,0.2999897003173828,-0.10477454960346222,0.05704176425933838,10.862464904785156,-0.00741094583645463,0.04749024286866188,0.0011017764918506145,-0.08856912702322006,0.10180308669805527,-0.09394098073244095,-0.0,2839.512451171875,2820.87646484375,1679.88818359375,1814.4296875
1767772913.5743272,13480315681547253999,228,31.337060928344727,34.852813720703125,51.90013122558594,55.296932220458984,35.96073532104492,-60.77930450439453,7.830979347229004,0.3247852921485901,2694.73095703125,-2500.3408203125,1280.5223388671875,-1248.694091796875,26.8575382232666,25.993383407592773,20.353172302246094,21.435468673706055,0.3469374477863312,0.22634288668632507,-0.0026207107584923506,-0.0003284091653767973,-0.18247519433498383,-0.1812763810157776,0.00974356196820736,0.006938796956092119,1999.5889892578125,4266.71337890625,-995.2227783203125,-668.4599609375,4148.75341796875,4915.54052734375,-274.3007507324219,-56.13426971435547,0.3005714416503906,-2.723794937133789,0.11838614195585251,20.860912322998047,0.10693488270044327,0.6531018018722534,0.09762844443321228,3.7841453552246094,-8.101716995239258,3.691218137741089,0.07698183506727219,2470.15673828125,3581.06591796875,1122.128173828125,2827.29296875
1767772914.5801723,13480315681547253999,248,28.183780670166016,27.827743530273438,53.886383056640625,54.32283401489258,8.41242790222168,-9.300443649291992,7.97421407699585,-4.292817115783691,325.3680419921875,-172.0872802734375,313.856689453125,-16.76460838317871,20.349634170532227,20.34503746032715,20.419782638549805,20.41683578491211,-0.0033370242454111576,-0.0034367141779512167,9.362975106341764e-05,7.245691813295707e-05,0.003028462640941143,-0.003666679374873638,-0.002107006963342428,0.0009306021383963525,-590.7002563476562,673.6256103515625,65.5859146118164,71.51515197753906,-430.6434020996094,-428.59698486328125,13.065760612487793,10.676498413085938,0.30324745178222656,-0.010241295211017132,0.1453641653060913,20.416292190551758,0.012909922748804092,-0.001320897601544857,0.022100267931818962,0.07458338886499405,0.13255836069583893,-0.03430847078561783,-0.0,2711.73486328125,2577.484130859375,2247.813232421875,2472.221435546875
1767772915.6222525,13480315681547253999,269,31.466941833496094,23.428958892822266,55.43009948730469,53.94437026977539,16.890607833862305,18.78689193725586,-20.558013916015625,19.028024673461914,-6876.12841796875,4576.0615234375,-9607.775390625,3219.376220703125,18.331661224365234,18.07313346862793,18.473026275634766,18.1074161529541,-0.0071171042509377,-0.0007625730941072106,-0.0003386363387107849,0.0003335155197419226,0.01387638971209526,0.007678243797272444,0.020969171077013016,0.017819704487919807,-1462.8682861328125,-885.8599853515625,-1250.2974853515625,-1519.0543212890625,-633.017333984375,-76.59126281738281,-22.976242065429688,41.957828521728516,0.302734375,-0.18555761873722076,0.14835309982299805,18.265445709228516,-0.0056564887054264545,-0.22478555142879486,-0.04852500185370445,-1.8457701206207275,-1.9905188083648682,-5.806857585906982,0.0561685748398304,2631.915771484375,1981.781982421875,3253.60400390625,2386.97216796875
1767772916.6295826,13480315681547253999,289,31.356584548950195,26.952054977416992,56.4416618347168,53.31368637084961,-38.07263946533203,-25.11626434326172,77.55643463134766,-3.504586696624756,1897.9202880859375,-2401.43994140625,10736.7177734375,-1277.557373046875,21.07146453857422,20.605064392089844,21.34515953063965,20.542909622192383,-0.01080201007425785,0.004049441311508417,-0.0006701164529658854,0.000551777018699795,0.03041868284344673,0.024328602477908134,0.04956880584359169,0.03946508467197418,-2485.83642578125,-2168.02978515625,-4336.7587890625,-2199.037109375,-794.2019653320312,328.7476501464844,-102.81775665283203,43.6364631652832,0.3041706085205078,-0.2778138816356659,0.1438421905040741,20.90313148498535,0.03366996347904205,-0.5132750272750854,-0.014876365661621094,0.744466245174408,-2.6239144802093506,-0.4914861023426056,0.11004220694303513,2578.037841796875,1814.3912353515625,4573.0400390625,1617.8409423828125
1767772917.6755147,13480315681547253999,310,33.807167053222656,34.40190505981445,53.327857971191406,54.218711853027344,8.079151153564453,12.373187065124512,-0.04324156790971756,1.6498321294784546,271.7408142089844,335.99090576171875,-82.9924087524414,-17.15915298461914,29.402420043945312,28.78130531311035,26.244300842285156,26.326147079467773,0.11443255096673965,0.08803297579288483,-0.0014012882020324469,-0.0009750209283083677,-0.005042587872594595,-0.013049698434770107,-0.0042405822314321995,-0.0013022501952946186,124.98588562011719,1235.0673828125,258.82373046875,305.76812744140625,4497.1826171875,5436.73193359375,-145.25376892089844,-140.89305114746094,0.2997913360595703,-0.15919046103954315,0.12782633304595947,26.31675148010254,0.001875315560027957,0.044073112308979034,0.002781058195978403,0.2477845549583435,-0.4010683000087738,-0.04526720941066742,-0.0,3117.21826171875,3387.92041015625,1809.1954345703125,2362.0009765625
1767772918.7244563,13480315681547253999,331,30.635826110839844,31.267677307128906,54.503963470458984,54.361839294433594,-4.669612407684326,-1.1808834075927734,2.5026731491088867,2.216054677963257,97.71929168701172,-147.44650268554688,237.15176391601562,119.40655517578125,29.552812576293945,29.5230655670166,29.274717330932617,29.271076202392578,0.006332008633762598,0.005903901066631079,-0.00011350728891557083,-0.00011979813280049711,0.003853405825793743,-0.0035378793254494667,-0.0016940421191975474,0.0014510073233395815,-693.4761352539062,722.310302734375,-6.901324272155762,26.776765823364258,792.7728881835938,838.6137084960938,-15.962401390075684,-18.34110450744629,0.30017662048339844,0.0015039248391985893,0.17113608121871948,29.279163360595703,0.00016728579066693783,-0.002380221150815487,0.00012368487659841776,0.057904306799173355,0.011977468617260456,0.167857363820076,-0.0,3063.188232421875,3198.126953125,2636.359619140625,2557.5673828125
1767772919.7730432,13480315681547253999,352,29.946510314941406,29.9593448638916,54.31939697265625,54.358741760253906,-7.606317520141602,-8.041311264038086,3.36896014213562,1.1177586317062378,-285.0645751953125,-452.7584228515625,30.240190505981445,-235.7257537841797,29.33675765991211,29.33087158203125,29.291927337646484,29.289321899414062,0.003896920708939433,0.003581586293876171,-0.00010831665713340044,-0.0001031626234180294,0.003762885695323348,-0.0034222002141177654,-0.0015706595731899142,0.0015436644898727536,-759.4246826171875,751.4295043945312,-9.558736801147461,14.525970458984375,541.8991088867188,531.8638916015625,-16.980051040649414,-17.341228485107422,0.3004016876220703,0.001931526931002736,0.21247035264968872,29.290306091308594,-0.017489900812506676,-0.0012483475729823112,0.011108767241239548,0.7314838171005249,0.015074677765369415,-0.20635676383972168,-0.0,2807.39990234375,2789.8876953125,2520.154052734375,2533.63623046875
1767772920.8199797,13480315681547253999,374,30.951671600341797,30.835704803466797,54.514320373535156,54.56758117675781,2.1703922748565674,2.255571126937866,0.4989934265613556,-0.11850052326917648,186.4075164794922,205.33619689941406,-130.1475372314453,-73.43183135986328,29.315214157104492,29.312519073486328,29.29022979736328,29.288816452026367,0.0028734079096466303,0.0027414062060415745,-9.123866038862616e-05,-8.773749868851155e-05,0.0035934511106461287,-0.0037628321442753077,-0.0017859202343970537,0.0014103392604738474,-782.939697265625,841.8644409179688,5.474946975708008,43.72666931152344,437.4920959472656,432.1793518066406,-15.148348808288574,-15.22359561920166,0.3007965087890625,-0.00404445081949234,0.1837705671787262,29.29088592529297,0.010550014674663544,-0.0010185539722442627,-0.005577109754085541,0.2591572403907776,-0.008950430899858475,-0.2329908311367035,-0.0,3120.2080078125,3110.425537109375,2636.026123046875,2669.333984375
1767772921.8266292,13480315681547253999,394,29.380558013916016,32.210147857666016,53.6009635925293,55.37736892700195,-8.68574333190918,8.907727241516113,-4.511410713195801,6.171128273010254,32.74258804321289,10.676704406738281,75.99915313720703,74.99944305419922,29.384912490844727,29.622957229614258,29.091567993164062,29.42623519897461,0.007075223606079817,0.004439795855432749,7.324651232920587e-05,-0.0002510623016860336,-0.003883326193317771,-0.011146153323352337,-0.01560298167169094,-0.016394024714827538,505.11712646484375,2180.287109375,1462.2598876953125,2404.614990234375,965.384033203125,755.4039916992188,-9.774136543273926,-49.09626770019531,0.30089378356933594,0.13238538801670074,0.18195806443691254,29.26048469543457,-0.004216322675347328,0.21254324913024902,-0.0286576971411705,0.03242719918489456,1.9019380807876587,-0.19642090797424316,-0.032244276255369186,2581.76025390625,3702.12841796875,1970.4609375,3339.69384765625
1767772922.878063,13480315681547253999,415,29.89080810546875,30.67918586730957,54.45165252685547,54.443355560302734,-3.5883073806762695,22.815916061401367,-1.0587388277053833,4.966004371643066,244.07814025878906,1158.451171875,-574.720703125,213.50540161132812,29.30992889404297,29.353723526000977,29.253299713134766,29.319435119628906,0.004214528016746044,0.0033006654120981693,-5.0682090659393e-05,-0.00024968991056084633,0.0022434922866523266,-0.004944208078086376,-0.0077475616708397865,-0.0057165855541825294,-547.8522338867188,1053.6595458984375,732.468994140625,945.3783569335938,627.3190307617188,532.5172119140625,-8.378007888793945,-44.018314361572266,0.30088233947753906,0.028811082243919373,0.18815068900585175,29.28849220275879,-0.01769457757472992,0.04216120019555092,-0.03865969553589821,-0.17073731124401093,1.5370765924453735,-1.3795945644378662,-0.009415297769010067,2859.64208984375,3216.7568359375,2519.06640625,2693.846435546875
1767772923.9258764,13480315681547253999,436,33.29852294921875,29.436033248901367,55.17301559448242,53.517391204833984,3.584428071975708,2.80356502532959,3.243823528289795,0.16242942214012146,-933.2396850585938,1216.0880126953125,-846.56298828125,877.5009765625,29.441852569580078,29.225046157836914,29.412912368774414,29.123659133911133,0.003556635230779648,0.006529617588967085,-0.0003255779156461358,-2.2340061605063966e-06,0.008193014189600945,0.0007757058483548462,0.014613214880228043,0.014062397181987762,-1651.3194580078125,21.750938415527344,-2111.09375,-1336.0013427734375,608.547119140625,922.201904296875,-61.23181915283203,0.30360493063926697,0.29976463317871094,-0.16852129995822906,0.17448881268501282,29.267019271850586,-0.0065451860427856445,-0.1834709793329239,0.011248281225562096,-0.7894629240036011,-2.7489068508148193,-1.4473625421524048,0.033532410860061646,3651.444091796875,2666.361328125,3163.171630859375,1944.260498046875
1767772924.9743505,13480315681547253999,457,30.658729553222656,30.902509689331055,54.44998550415039,54.45576858520508,4.636617183685303,0.46389326453208923,-1.9986978769302368,-0.6981551647186279,345.74169921875,356.1737976074219,-107.57910919189453,-200.96823120117188,29.33517074584961,29.333642959594727,29.290802001953125,29.28989028930664,0.003848449094220996,0.003796270117163658,-0.00012252577289473265,-0.00012181072816019878,0.003485762281343341,-0.003843600396066904,-0.0018214930314570665,0.0013541033258661628,-784.4960327148438,848.2272338867188,16.884387969970703,41.3751220703125,595.1495971679688,592.7944946289062,-20.729036331176758,-20.66825294494629,0.30068397521972656,-0.005615634378045797,0.1864539235830307,29.291736602783203,0.0025271959602832794,-0.0006461449083872139,-0.0030123598407953978,0.29574042558670044,-0.004903930705040693,-0.11518170684576035,-0.0,3044.691162109375,3094.836669921875,2566.75146484375,2578.443359375
1767772926.0217419,13480315681547253999,479,30.728107452392578,30.794260025024414,54.500980377197266,54.5639762878418,-3.038597345352173,3.5751264095306396,2.0004656314849854,2.6565301418304443,69.80756378173828,157.57516479492188,64.41410827636719,101.73371124267578,29.519136428833008,29.51683235168457,29.26801300048828,29.267545700073242,0.00564412958920002,0.005616129841655493,-0.00010936818580375984,-0.00011022576654795557,0.0034735400695353746,-0.003860518103465438,-0.0018213967559859157,0.0013592247851192951,-781.3738403320312,854.4409790039062,7.145567417144775,52.8187255859375,873.399658203125,876.6551513671875,-18.923259735107422,-19.231966018676758,0.3007698059082031,-0.006300659384578466,0.1799510419368744,29.274717330932617,0.009928896091878414,-0.0004705510218627751,-0.0033779130317270756,0.2347605675458908,-0.0035818142350763083,0.06610538810491562,-0.0,3113.6025390625,3166.94873046875,2649.11279296875,2691.1298828125
1767772927.0259242,13480315681547253999,499,36.857784271240234,37.66123962402344,54.556697845458984,54.84860610961914,-22.118844985961914,-16.702787399291992,3.4955811500549316,6.143143177032471,204.54185485839844,-387.66552734375,254.8436737060547,-81.42174530029297,40.486480712890625,40.44450378417969,39.29918670654297,39.29975509643555,0.02594929188489914,0.025126338005065918,-0.0005810243310406804,-0.0005618400755338371,0.0033265326637774706,-0.005469389259815216,-0.002632122952491045,0.0005915642832405865,-801.5791015625,1197.6488037109375,101.58731079101562,166.98541259765625,3979.453369140625,4037.35595703125,-103.98313903808594,-104.24364471435547,0.2950172424316406,-0.03887099772691727,0.1642051339149475,39.32521438598633,-0.010268459096550941,-3.201788058504462e-05,0.008626180700957775,0.4132661521434784,-0.11559304594993591,0.5219081044197083,-0.0,3790.83984375,4036.0087890625,2698.908935546875,2888.947998046875
1767772928.070571,13480315681547253999,520,34.13478469848633,33.878326416015625,54.97386169433594,55.09149932861328,1.3441802263259888,-0.6908352971076965,-4.641865253448486,-4.0038957595825195,273.13092041015625,243.39883422851562,-389.0205383300781,-224.7577362060547,40.24919891357422,40.24935531616211,40.262359619140625,40.262027740478516,0.0019830740056931973,0.002023759065195918,-6.91960085532628e-05,-7.071401341818273e-05,0.003835006384178996,-0.0042177243158221245,-0.0019015773432329297,0.0014891843311488628,-929.1189575195312,995.183349609375,-6.618899345397949,66.0742416381836,352.0144348144531,355.87933349609375,-12.885477066040039,-13.368856430053711,0.2967967987060547,-0.008633310906589031,0.212053582072258,40.26137924194336,0.002963226055726409,-0.00012575017171911895,0.0032668733038008213,-0.07734697312116623,0.0064769890159368515,-0.06169269606471062,-0.0,3732.64697265625,3682.290771484375,2915.96630859375,2990.249755859375
1767772929.0759482,13480315681547253999,540,32.2241325378418,36.59811019897461,54.26691818237305,55.90427017211914,-21.80019187927246,12.57746410369873,-8.288901329040527,13.288006782531738,-608.0165405273438,-327.1960144042969,11.781721115112305,251.1884765625,40.56798553466797,40.757904052734375,40.05819320678711,40.401126861572266,0.009706449694931507,0.006800851784646511,3.6407702282303944e-05,-0.0002833062026184052,-0.004147796891629696,-0.012239000760018826,-0.017295489087700844,-0.01715073175728321,544.998046875,2606.161376953125,1750.4722900390625,2680.145263671875,1466.4464111328125,1317.902587890625,-5.694840431213379,-61.00537872314453,0.2966499328613281,0.031297679990530014,0.2142801582813263,40.23961639404297,-0.02831907942891121,0.2184716761112213,-0.04747156426310539,0.10504163056612015,2.112344264984131,0.15085598826408386,-0.026678407564759254,3025.82275390625,4580.44287109375,2403.58837890625,3775.507568359375
1767772930.076805,13480315681547253999,560,33.843868255615234,34.91830825805664,55.203277587890625,55.04291534423828,-5.485626697540283,-6.397917747497559,-0.3897392153739929,3.001225233078003,-813.6295776367188,-365.0168762207031,86.82500457763672,63.841400146484375,40.65354537963867,40.637760162353516,40.24436569213867,40.24054718017578,0.007829654961824417,0.007630252745002508,-0.00014514745271299034,-0.0001466075045755133,0.0038637276738882065,-0.004290790297091007,-0.002084430307149887,0.0013032816350460052,-920.803955078125,1021.5206298828125,0.5730878114700317,95.02997589111328,1335.014404296875,1354.6143798828125,-28.176868438720703,-28.046205520629883,0.2966938018798828,-0.00973372533917427,0.21176768839359283,40.25156784057617,-0.005844760686159134,-0.002309520961716771,-0.009082920849323273,0.136217400431633,0.0017763683572411537,0.22674323618412018,-0.0,3656.96533203125,3905.76904296875,3115.908935546875,3045.353271484375
1767772931.1266549,13480315681547253999,582,31.76411247253418,32.24942398071289,54.98589324951172,54.868446350097656,-7.891094207763672,-3.9245076179504395,-1.8710472583770752,-4.087774753570557,-89.81541442871094,-83.45697021484375,134.32028198242188,65.62600708007812,38.438377380371094,38.43932342529297,38.57500457763672,38.573516845703125,-0.003409662749618292,-0.0033421723637729883,0.00011120985436718911,0.00011731938866432756,0.0034385896287858486,-0.004203083924949169,-0.0021391178015619516,0.0012076549464836717,-807.3196411132812,946.806396484375,17.32634925842285,91.6576156616211,-562.5986938476562,-564.2317504882812,20.806657791137695,21.697633743286133,0.2979297637939453,-0.01558189932256937,0.2352544367313385,38.5689582824707,-0.01768484152853489,-0.0004496912006288767,-0.001137767219915986,-0.29337844252586365,-0.008658801205456257,0.04472782462835312,-0.0,3379.90673828125,3522.8994140625,2934.814208984375,2871.178466796875
1767772932.176934,13480315681547253999,603,34.07821273803711,33.28022003173828,56.49345779418945,57.04808807373047,3.204526424407959,-11.173839569091797,40.23116683959961,31.140928268432617,-252.6221923828125,-142.06967163085938,-751.2405395507812,-574.8377685546875,32.67294692993164,32.50642395019531,29.43937873840332,31.86949348449707,-0.04600749909877777,-0.05019587278366089,-0.14706730842590332,-0.08111458271741867,0.003582550212740898,-0.004418113734573126,-0.0033885035663843155,0.0003518416779115796,-598.1012573242188,643.4093627929688,-226.45167541503906,377.0557556152344,-4315.06494140625,-4159.8798828125,-6904.64794921875,-7320.7958984375,0.298736572265625,-0.03400202468037605,0.2448057234287262,34.27299499511719,0.026794152334332466,-0.01186076458543539,0.007951013743877411,0.7360870242118835,-0.03885271027684212,-0.973663330078125,-0.0,2670.12451171875,2445.59228515625,4283.57763671875,4503.33154296875
1767772933.2278643,13480315681547253999,624,28.855491638183594,29.753372192382812,54.50918960571289,54.30857467651367,-6.363421440124512,-5.466516494750977,-3.1481988430023193,1.4198668003082275,-36.253578186035156,107.3534927368164,-10.071430206298828,151.0150146484375,27.604185104370117,27.60592269897461,27.73919105529785,27.736461639404297,-0.004701359663158655,-0.004533689469099045,0.00015827463357709348,0.00015966470527928323,0.0033172830007970333,-0.0037133542355149984,-0.002000586362555623,0.0011575451353564858,-652.8480834960938,724.5285034179688,31.356836318969727,57.139644622802734,-616.0513305664062,-618.4014892578125,24.296640396118164,24.01043701171875,0.3014564514160156,-0.007468823343515396,0.1891050934791565,27.733213424682617,-0.0076503027230501175,-0.001398579915985465,-0.005105925258249044,0.09000842273235321,0.0292211826890707,0.15622632205486298,-0.0,2792.30810546875,2989.337890625,2600.791015625,2513.18408203125
1767772934.273458,13480315681547253999,645,29.787582397460938,24.328731536865234,53.9312858581543,55.0682258605957,37.27043151855469,-81.1942138671875,-178.48077392578125,-42.04006576538086,3404.97802734375,568.6989135742188,-15336.6337890625,-794.632080078125,22.57657241821289,22.35425567626953,22.787538528442383,22.42500114440918,-0.003023693570867181,4.166700455243699e-05,-0.0006320465472526848,-0.004205361008644104,0.011912494897842407,0.005420698318630457,0.06972149759531021,0.06388494372367859,-1961.4644775390625,-490.92962646484375,-0.0,-2738.69580078125,-435.7257385253906,-3.001595973968506,0.0,272.5887145996094,0.3021202087402344,-0.11586693674325943,0.17310220003128052,22.521350860595703,0.011588381603360176,-0.18257270753383636,0.1615927815437317,0.04101084917783737,-1.1733241081237793,1.3502534627914429,0.0914158821105957,3281.70068359375,1407.296142578125,1111.5330810546875,2221.761962890625
1767772935.276162,13480315681547253999,665,34.043968200683594,22.404394149780273,54.540409088134766,53.550262451171875,-52.172183990478516,-91.83890533447266,-42.33329391479492,38.87754821777344,-22398.677734375,10906.2197265625,-3593.697509765625,6465.4599609375,18.450029373168945,18.222280502319336,18.78034210205078,18.200834274291992,-0.012723993510007858,0.0005052806809544563,-4.3347110477043316e-05,0.0005993388476781547,0.02955399453639984,0.023358449339866638,0.05136481299996376,0.04323442652821541,-0.0,-1916.467041015625,-853.0385131835938,-2049.927001953125,-0.0,42.61151123046875,-0.8856472969055176,45.79043960571289,0.3078956604003906,-0.11513903737068176,0.2060709297657013,18.470630645751953,-0.020829830318689346,-0.36895987391471863,-0.006102481856942177,1.4415950775146484,-2.6006662845611572,-7.995033264160156,0.09746221452951431,1963.581298828125,1859.772705078125,2500.2529296875,2403.079833984375
1767772936.3302484,13480315681547253999,687,29.832992553710938,29.789430618286133,56.262699127197266,50.458953857421875,24.683252334594727,-22.455904006958008,1.1399096250534058,-19.069385528564453,1772.6485595703125,-2462.4853515625,141.47341918945312,-1353.5897216796875,25.12572479248047,25.487323760986328,6.448798179626465,6.600602626800537,3.844668388366699,5.171119213104248,0.11604682356119156,0.77266526222229,1.2615337371826172,1.2891563177108765,0.8113903403282166,0.9852819442749023,-3719.35791015625,-2362.629638671875,-3634.102783203125,-0.0,1122.5799560546875,725.2855224609375,423.3360290527344,0.0,0.30446624755859375,13.06834602355957,0.06573513895273209,1.2053954601287842,-0.025008300319314003,-2.4895830154418945,-0.004056873265653849,1.0035320520401,1.0072791576385498,-0.11991287767887115,-0.30413997173309326,3521.5712890625,2308.571044921875,3985.967041015625,160.24400329589844
1767772937.3314443,13480315681547253999,707,27.438932418823242,27.085851669311523,53.68178176879883,51.8779296875,-71.42371368408203,80.96961212158203,30.31332778930664,-31.557418823242188,-7536.36962890625,4385.80224609375,2734.287353515625,-417.8994140625,-2.803504095538756e-10,-3.6389935509362203e-10,0.0,0.0,0.7246630787849426,0.7251359224319458,0.7276463508605957,0.7298391461372375,0.0015901857987046242,0.006355706136673689,-0.004650972317904234,-0.006542133633047342,-5.187987327575684,-35.167240142822266,11.967300415039062,7.735251426696777,2225.385986328125,3920.57177734375,1854.3226318359375,840.0733642578125,0.30478858947753906,0.004476945381611586,-0.02630266547203064,-4.262520790100098,-0.03296096995472908,-0.016194026917219162,0.13959775865077972,-0.12688888609409332,-0.6803272366523743,7.747772693634033,-0.0,1902.097900390625,3822.800048828125,2761.71875,818.7301025390625
1767772938.364326,13480315681547253999,728,28.026500701904297,31.966564178466797,53.76978302001953,52.99802017211914,-3.0637168884277344,-14.00683879852295,-3.4590039253234863,-12.791142463684082,310.7156982421875,-852.4248657226562,-135.77139282226562,-1791.3458251953125,25.514389038085938,24.95676612854004,1.7263420820236206,1.883847713470459,4.408227920532227,4.256589889526367,-0.002000022679567337,-0.0019532127771526575,-0.018112285062670708,-0.020443245768547058,0.0008453051559627056,-0.01043181773275137,-21.166900634765625,143.43138122558594,-70.66776275634766,527.1660766601562,2026.974365234375,2850.347900390625,-144.02651977539062,-98.6929702758789,0.30315589904785156,0.08972477912902832,0.008237367495894432,1.7657475471496582,0.001822742517106235,0.11435426771640778,0.0019246938172727823,-0.19281557202339172,0.42166846990585327,-0.08977904915809631,-0.17657114565372467,1977.639404296875,2778.75390625,1959.3885498046875,1431.641357421875
1767772939.3795881,13480315681547253999,748,26.903247833251953,36.605892181396484,53.811744689941406,53.62436294555664,-115.76647186279297,78.98027801513672,-16.680044174194336,26.924236297607422,-6341.935546875,3565.739013671875,-4209.12353515625,843.91943359375,40.749488830566406,39.37217712402344,4.746181964874268,5.929198741912842,6.038084506988525,5.193129539489746,-0.0013510793214663863,-0.0014298039022833109,-0.20544865727424622,-0.19322101771831512,0.002509078476577997,-0.06975921243429184,179.2811279296875,790.458251953125,-164.9530029296875,3032.209228515625,986.4140625,3442.960693359375,-113.6414794921875,-87.08554077148438,0.30391502380371094,0.001957907108590007,0.07474693655967712,5.111471176147461,0.05767565593123436,0.7736136317253113,0.04176697880029678,1.3162540197372437,0.7960905432701111,-1.6831735372543335,-0.30413997173309326,1074.189453125,3784.24609375,1958.155517578125,2551.759765625
1767772940.4324954,13480315681547253999,769,22.785696029663086,34.35581588745117,52.991607666015625,53.41704559326172,39.69468307495117,-78.62557983398438,-20.10211181640625,27.20371437072754,4220.19091796875,-8806.4091796875,-2438.465576171875,7359.0390625,41.30220031738281,40.234779357910156,4.119327545166016,6.493030548095703,6.364496231079102,4.709407806396484,0.001268036779947579,-0.000609127338975668,-0.6508030295372009,-0.5635136961936951,-0.018789535388350487,-0.1283838152885437,932.3321533203125,1411.9566650390625,1093.1920166015625,0.0,1333.8909912109375,2112.3037109375,-96.59215545654297,-0.0,0.3046283721923828,-1.836606502532959,0.023071937263011932,5.193384170532227,-0.011224072426557541,1.5563830137252808,-0.027438081800937653,-0.21487098932266235,0.5420227646827698,-0.8241590261459351,-0.30413997173309326,1181.4173583984375,3320.1201171875,1496.0684814453125,1979.378173828125
1767772941.4688728,13480315681547253999,790,32.08897399902344,28.053890228271484,53.35794448852539,53.63457107543945,-40.60076141357422,-4.51558780670166,65.5008773803711,-45.05984115600586,-1128.7171630859375,-7805.55078125,3771.435546875,-1792.871826171875,40.90298080444336,41.33345413208008,5.877770900726318,5.639588832855225,5.34670877456665,5.520663738250732,-0.001604719553142786,-0.0010799100855365396,-0.19995664060115814,-0.20919781923294067,0.02349049225449562,-0.01277393102645874,433.2686462402344,543.9004516601562,-1742.8326416015625,0.0,2573.056884765625,2156.3115234375,-139.50282287597656,-0.0,0.3106975555419922,-1.5437586307525635,0.01749791018664837,5.475780487060547,0.025305315852165222,-0.13623572885990143,-0.02873688004910946,0.928329348564148,-1.7332980632781982,-0.7389448285102844,0.3403399884700775,2536.91455078125,1679.628662109375,2109.3115234375,2111.09033203125
1767772942.5201461,13480315681547253999,811,31.98138999938965,29.832143783569336,53.69133758544922,53.76121520996094,50.8265266418457,15.445356369018555,41.4554443359375,-95.00651550292969,3398.530517578125,2343.0205078125,6022.787109375,-7536.6220703125,40.007869720458984,41.17084503173828,8.870549201965332,8.591269493103027,3.526015281677246,3.6983742713928223,-0.0014376100152730942,-0.002542174654081464,0.05325167253613472,0.04776536300778389,-0.012570682913064957,-0.013498789630830288,-511.83087158203125,-0.0,0.0,953.066650390625,5171.1865234375,0.0,-0.0,-205.7304229736328,0.3040294647216797,0.09323810786008835,0.10351121425628662,8.727952003479004,0.0106275025755167,-0.20927071571350098,0.02930324524641037,1.485632061958313,1.3691514730453491,-1.338399887084961,0.02583840675652027,3474.008544921875,2499.869140625,2261.087646484375,1629.825439453125
1767772943.5222194,13480315681547253999,831,33.29539489746094,31.883907318115234,55.04085922241211,52.83753967285156,159.41839599609375,179.36276245117188,-35.781211853027344,52.173343658447266,-816.4901733398438,8639.22265625,-3694.703369140625,5962.2802734375,41.1309700012207,40.35857009887695,11.577103614807129,10.353726387023926,2.506204605102539,2.901869297027588,-0.0008094526710920036,-0.0009262965177185833,0.2581034302711487,0.2777615785598755,0.02645409107208252,0.032586485147476196,-261.9129638671875,-873.5258178710938,-1131.3441162109375,-1719.5086669921875,921.0320434570312,3727.10107421875,-39.57599639892578,79.76721954345703,0.30063819885253906,1.7865420579910278,0.07919907569885254,10.949197769165039,0.05372454598546028,-0.7449343800544739,-0.043675605207681656,1.2773244380950928,-1.1430699825286865,-4.098423957824707,-0.0,3285.6337890625,4076.85400390625,2897.67333984375,1695.4168701171875
1767772944.5783832,13480315681547253999,852,29.51661491394043,29.226320266723633,57.960906982421875,51.02801513671875,3.3702900409698486,32.420475006103516,41.1991081237793,14.66716194152832,-5821.17333984375,-4049.205078125,-6729.6455078125,4438.650390625,34.918052673339844,34.700904846191406,12.336747169494629,11.59731674194336,2.0192127227783203,2.2373926639556885,-0.0005634449189528823,0.0009745174320414662,0.4631599485874176,0.4830814003944397,0.027845820412039757,0.012025614269077778,-810.7481079101562,-1111.570068359375,-1708.1817626953125,-488.39056396484375,1515.443603515625,2355.442626953125,-54.99726867675781,52.797428131103516,0.3016929626464844,4.964762210845947,0.02469567582011223,11.258312225341797,0.2509829103946686,-0.4834868013858795,0.056701622903347015,11.672733306884766,-0.09742213040590286,2.60123610496521,-0.30413997173309326,2909.29736328125,1829.56982421875,5026.9609375,1313.1353759765625
1767772945.6307726,13480315681547253999,874,24.938533782958984,32.63051223754883,54.20806121826172,54.65969467163086,-80.13160705566406,135.0552520751953,-104.92184448242188,28.765602111816406,-21086.09375,17759.716796875,-11108.322265625,1095.360107421875,10.824129104614258,11.080320358276367,10.487455368041992,11.22565746307373,0.022340359166264534,-0.0017171819927170873,-0.0010314368410035968,0.0003367133904248476,-0.01802143268287182,-0.023429647088050842,-0.033882804214954376,-0.05650946497917175,0.0,2969.640380859375,0.0,3379.898681640625,0.0,245.63467407226562,-0.0,29.888036727905273,0.31174468994140625,0.5558822751045227,0.10145403444766998,10.759767532348633,0.1043330505490303,0.45170119404792786,0.027007155120372772,0.7984902262687683,-0.21688073873519897,0.07465214282274246,-0.1656373292207718,871.1868286132812,5207.6787109375,1931.444091796875,2143.404052734375
1767772946.6785622,13480315681547253999,895,28.257673263549805,33.57517623901367,52.705726623535156,55.28118133544922,-118.21910858154297,68.69872283935547,-53.856327056884766,75.23578643798828,-2589.73486328125,-6221.99169921875,-2798.3984375,1755.48583984375,31.58047103881836,30.941516876220703,11.702823638916016,12.412223815917969,1.631338357925415,1.4341981410980225,-0.0013005719520151615,-0.0008124717860482633,-0.153514102101326,-0.1521785706281662,-0.01876867190003395,-0.01479420904070139,0.0,0.0,1008.6947021484375,1221.9239501953125,0.0,0.0,-102.30073547363281,-89.96830749511719,0.3051433563232422,-1.103110432624817,0.11860352754592896,12.03141975402832,-0.0304933600127697,0.4689461886882782,0.020770274102687836,-9.77920150756836,1.5908749103546143,3.438474655151367,-0.0,1120.9208984375,3293.500244140625,1319.8753662109375,3290.34521484375
1767772947.7129512,13480315681547253999,916,34.237606048583984,28.65083885192871,54.60840606689453,54.203853607177734,355.2853088378906,-202.1554718017578,176.65965270996094,-84.91107940673828,14076.7685546875,-3964.630859375,7645.0029296875,-3501.448486328125,13.480847358703613,13.178345680236816,13.29909610748291,13.090109825134277,0.041655514389276505,0.05948851630091667,-0.0009794700890779495,0.00043837938574142754,-0.14457517862319946,-0.15372973680496216,-0.03462887927889824,-0.04926178976893425,3097.416015625,5289.40771484375,1983.3438720703125,3038.901611328125,1049.134033203125,2200.140625,-111.1666259765625,-44.55628967285156,0.3012199401855469,-2.0619089603424072,0.13228577375411987,12.968986511230469,0.03184063360095024,-0.12553127110004425,-0.04831809177994728,12.401031494140625,-3.2212488651275635,-13.207747459411621,0.14458832144737244,3337.701416015625,3445.0927734375,2588.28759765625,2950.278076171875
1767772948.728927,13480315681547253999,936,29.998918533325195,26.445785522460938,55.642520904541016,54.40130615234375,110.77015686035156,-141.42706298828125,134.7313995361328,-5.237015247344971,4759.82763671875,-14761.5087890625,7694.05224609375,1047.333251953125,10.622949600219727,10.262446403503418,10.7669677734375,10.116717338562012,-0.005748054012656212,0.014059473760426044,0.0007319619180634618,0.001464424654841423,0.01567774824798107,0.0096005043014884,0.042856186628341675,0.022404082119464874,-1443.6492919921875,-0.0,-2225.38623046875,-1597.9542236328125,-419.17578125,0.0,-48.24312973022461,217.4620819091797,0.3045845031738281,-0.5389572381973267,0.10080534964799881,10.340641021728516,-0.09865880757570267,-0.4033297002315521,0.066851407289505,4.954899787902832,-0.9780935645103455,0.37883028388023376,0.16615429520606995,3388.000244140625,769.3921508789062,3961.46044921875,2718.126220703125
1767772949.7701828,13480315681547253999,957,31.37361717224121,25.849905014038086,53.7392463684082,55.488468170166016,73.3057632446289,-25.774511337280273,-56.851783752441406,108.3759765625,620.4241333007812,-1376.3197021484375,481.4898986816406,9047.7724609375,8.45119857788086,7.696451187133789,8.704218864440918,7.7662200927734375,-0.01404617540538311,0.017491254955530167,0.00028548925183713436,5.377865818445571e-05,0.017297053709626198,0.012121540494263172,0.08195646852254868,0.0265931636095047,-1657.624267578125,-0.0,-3732.140869140625,-1726.010986328125,-1125.7431640625,0.0,-19.676156997680664,5.6023054122924805,0.3047943115234375,-0.922214150428772,0.10690910369157791,7.95242166519165,-0.06989932805299759,-0.6281572580337524,-0.020698711276054382,-4.656983375549316,-0.8966264128684998,-1.6650664806365967,0.33161669969558716,3755.062744140625,1265.9754638671875,2323.4013671875,2968.391357421875
1767772950.7803135,13480315681547253999,978,27.784549713134766,24.958486557006836,54.74380111694336,54.97248077392578,-106.42396545410156,-84.01553344726562,108.29413604736328,-30.980424880981445,-10216.228515625,-4785.34130859375,8540.6591796875,-6654.3857421875,6.137331008911133,6.152547359466553,6.134753704071045,6.131629467010498,0.0004841692862100899,0.0021535682026296854,-0.00037380398134700954,-0.0002516119566280395,0.003033650806173682,-0.002972889458760619,-0.0013698104303330183,0.0013521250803023577,-325.86126708984375,136.77394104003906,34.584388732910156,131.7958984375,34.346187591552734,63.377098083496094,21.022306442260742,-35.48413848876953,0.30233001708984375,0.00016155713819898665,0.0385550782084465,6.120467662811279,-0.015159600414335728,0.005280155688524246,0.05936725437641144,2.3935368061065674,0.10013469308614731,5.070642471313477,-0.0,1230.716552734375,1133.27587890625,2759.238525390625,2930.417724609375
1767772951.7813842,13480315681547253999,998,25.70325469970703,32.231746673583984,51.38484573364258,55.387184143066406,-57.70174026489258,-53.90388107299805,-58.40709686279297,-4.066675186157227,2624.543212890625,-2083.403564453125,1551.3614501953125,-6568.64892578125,24.038705825805664,23.061311721801758,7.263010501861572,8.429495811462402,2.036635398864746,1.6279743909835815,-0.0019858090672641993,-0.0012889340287074447,-0.33585506677627563,-0.3106454908847809,-0.021274268627166748,-0.0163076464086771,0.0,847.0715942382812,0.0,774.9113159179688,0.0,2396.415283203125,-0.0,-65.79132080078125,0.3013591766357422,-1.5444011688232422,0.06845951080322266,7.848384380340576,-0.14954687654972076,0.7060708403587341,0.03794867917895317,-10.619125366210938,0.2973634898662567,3.9340596199035645,-0.0,1587.140869140625,2261.14990234375,1064.481689453125,3019.4482421875
1767772952.8142164,13480315681547253999,1019,31.417329788208008,29.764118194580078,52.787540435791016,54.9911003112793,30.812320709228516,4.721229076385498,-13.246766090393066,22.35482406616211,5489.8837890625,-3555.86572265625,3322.45458984375,5846.685546875,9.675643920898438,9.540461540222168,9.911478042602539,9.78095531463623,0.03423716500401497,0.03133069723844528,0.00012686519767157733,0.0021407464519143105,-0.19099673628807068,-0.20004597306251526,-0.014268062077462673,-0.034814853221178055,3363.092529296875,4951.0322265625,644.4091186523438,1991.983642578125,737.734130859375,907.5902709960938,-7.884972095489502,173.9802703857422,0.30518531799316406,-1.9396649599075317,0.13325002789497375,9.599344253540039,0.17513303458690643,-0.09311278164386749,-0.1453145444393158,4.378887176513672,-4.206605434417725,-4.957902431488037,0.2048509120941162,3112.12060546875,3085.437744140625,1673.083740234375,3268.28662109375
1767772953.8344238,13480315681547253999,1039,27.84993553161621,25.402814865112305,51.64186477661133,56.209922790527344,-15.58051586151123,-1.8193013668060303,-73.18058776855469,118.14543151855469,1155.2049560546875,-6589.697265625,-2845.938232421875,6834.865234375,4.923336505889893,4.708977699279785,4.9823737144470215,4.72359037399292,-0.005635125562548637,0.0033833766356110573,0.0008529206388629973,0.0005201817839406431,0.0007750199292786419,-0.0042323945090174675,5.7730921980692074e-05,-0.011993799358606339,-106.39398193359375,445.7038879394531,-26.63197135925293,926.6607055664062,-367.8323669433594,243.9510955810547,-34.67884063720703,55.73112487792969,0.3075714111328125,-0.2639610469341278,0.02484402433037758,4.795093059539795,0.037945155054330826,-0.15603554248809814,0.02094654180109501,-6.884872913360596,1.8234009742736816,2.296126365661621,0.12205294519662857,2668.695068359375,1641.6031494140625,908.1119995117188,3776.856689453125
1767772954.865934,13480315681547253999,1060,31.862001419067383,24.335044860839844,52.59341049194336,54.49690628051758,46.49660873413086,10.280570030212402,-28.0411319732666,7.094520568847656,4801.5537109375,2661.513916015625,-1738.97265625,1641.094970703125,3.36961030960083,3.0224955081939697,3.5276455879211426,3.1205437183380127,-0.0073913587257266045,0.008953997865319252,0.000677003525197506,-0.0002874885976780206,0.0014840785879641771,-0.0022697141394019127,0.0317145399749279,-0.008003009483218193,-258.362548828125,251.24061584472656,-2026.3841552734375,547.5059814453125,-801.1563110351562,591.0430908203125,-52.52169418334961,29.76729965209961,0.30573272705078125,-0.46177420020103455,0.025865653529763222,3.16835355758667,0.0504884272813797,-0.27622607350349426,-0.02081965282559395,1.3358672857284546,0.5071661472320557,-2.0322327613830566,0.3403399884700775,3871.1728515625,1741.226318359375,1146.9686279296875,2297.77734375
1767772955.8688786,13480315681547253999,1081,31.97193145751953,30.1214542388916,53.944313049316406,53.151283264160156,106.41038513183594,-118.05299377441406,28.37769317626953,-17.998369216918945,2812.090576171875,-12740.6416015625,597.937744140625,231.6312255859375,20.171560287475586,20.870914459228516,4.374516010284424,4.381293773651123,2.5928115844726562,2.595057249069214,-0.0011898684315383434,-0.0012266099220141768,-0.0037056605797261,-0.009125367738306522,-0.001998153980821371,7.227781316032633e-05,-118.87772369384766,69.69927978515625,8.290351867675781,50.7162971496582,3736.792724609375,2011.6824951171875,128.32582092285156,-88.26665496826172,0.3003711700439453,-0.027828725054860115,0.009627007879316807,4.36558723449707,-0.01683516427874565,0.004477875307202339,-0.03691023588180542,1.9292680025100708,-0.39487242698669434,-0.11106656491756439,-0.0,3557.24951171875,1769.9107666015625,1926.8165283203125,1759.872802734375
1767772956.9294312,13480315681547253999,1102,25.21799087524414,28.819913864135742,52.90772247314453,55.105045318603516,21.94183921813965,-2.240222215652466,-116.45890808105469,148.58059692382812,1990.9417724609375,2031.3577880859375,-11228.873046875,12487.787109375,7.009480953216553,7.008872985839844,7.010534763336182,7.0128493309021,0.0007021439960226417,0.0005424693808890879,0.00012445833999663591,-0.00034899209276773036,0.002565213944762945,-0.0034637460485100746,-0.001321012037806213,0.001412689802236855,-304.90570068359375,474.6407470703125,0.0,39.614402770996094,52.83137512207031,55.44913864135742,-0.0,39.321205139160156,0.30318260192871094,0.00351157458499074,0.00795283168554306,6.988171100616455,-0.048114024102687836,0.0008629317162558436,-0.022481761872768402,-6.203856468200684,0.20790955424308777,-1.6309373378753662,-0.0,2089.279052734375,3187.730224609375,1101.6929931640625,3474.89208984375
1767772957.965185,13480315681547253999,1123,28.689836502075195,27.87129783630371,54.6320686340332,54.37163162231445,-56.85717010498047,-39.5201530456543,33.441158294677734,6.303936004638672,-5209.33203125,-6926.9208984375,5872.0576171875,-3474.7568359375,5.433190822601318,5.29618501663208,5.464054107666016,5.277274131774902,-0.0024324075784534216,0.0023809713311493397,0.00015283090760931373,-0.0001536749623483047,0.006278202403336763,0.0005036154761910439,0.012653778307139874,0.006260326597839594,-649.8052978515625,-12.564728736877441,-1150.531005859375,-344.38531494140625,-185.39027404785156,-80.08152770996094,-17.854707717895508,-13.407949447631836,0.3007793426513672,-0.16901229321956635,0.08757442981004715,5.334835052490234,-0.014682295732200146,-0.1124492883682251,-0.011607022024691105,-2.462066650390625,-1.0672048330307007,0.7140337228775024,0.08369389176368713,2643.625,1337.83837890625,3313.110107421875,2293.959228515625
1767772958.9666567,13480315681547253999,1143,29.161287307739258,26.50537109375,52.71101760864258,54.83268737792969,-30.254575729370117,98.8263168334961,-48.09468460083008,-6.274840354919434,-4271.22119140625,4387.77783203125,-3351.156005859375,-4801.7822265625,3.7055716514587402,3.3862881660461426,3.800882339477539,3.4361956119537354,-0.0031090565025806427,0.006100204307585955,0.00224986276589334,-0.00040596313192509115,0.0004003886424470693,-0.0036232671700417995,0.007191284094005823,-0.019990090280771255,-111.12577056884766,344.4858703613281,-504.5097351074219,1348.7744140625,-273.3631896972656,384.5085754394531,153.3741912841797,-40.66592788696289,0.30651283264160156,-0.38764071464538574,0.0260026752948761,3.511195659637451,0.08007866144180298,-0.2277824729681015,0.050829630345106125,-0.47494298219680786,1.742133617401123,-2.0362844467163086,0.24428169429302216,2695.507080078125,2463.9794921875,1115.842041015625,2675.422607421875
1767772959.9781,13480315681547253999,1163,26.435745239257812,27.947839736938477,53.72547149658203,53.79001998901367,-4.386074066162109,2.1516904830932617,-1.9300878047943115,2.271449327468872,58.962894439697266,-70.96746826171875,28.092605590820312,-46.81330490112305,0.0,0.0,0.0,0.0,0.0015686271945014596,0.0008159200078807771,0.0015879468992352486,0.0007918165065348148,-0.0015641630161553621,-0.0015557417646050453,0.0007783446926623583,0.0007744912873022258,-187.18263244628906,92.2603530883789,-146.51564025878906,214.87901306152344,-210.63165283203125,-30.51097297668457,72.43817138671875,-262.6569519042969,0.3063011169433594,-0.001126177259720862,-0.0005249939858913422,0.0019585364498198032,0.009399985894560814,0.0025373634416610003,0.002291940152645111,-0.5838047862052917,0.1276095062494278,-0.5521009564399719,-0.0,2145.314697265625,2479.464111328125,2083.95849609375,2142.434814453125
1767772961.0255277,13480315681547253999,1184,26.446487426757812,27.80378532409668,53.751243591308594,53.74523162841797,-3.452131986618042,3.0638744831085205,-3.0096888542175293,-0.16390104591846466,96.64765167236328,-110.91027069091797,66.05976867675781,-197.93592834472656,0.0,0.0,0.0,0.0,0.00103769451379776,0.0008235705317929387,0.0010498871561139822,0.0008219235460273921,-0.0004783447366207838,-0.00047093580360524356,-4.319340587244369e-05,-4.6644021495012566e-05,-179.0147705078125,135.92791748046875,-139.8953094482422,225.02806091308594,-184.8007354736328,-8.536101341247559,114.93144989013672,-240.00877380371094,0.3063793182373047,-0.0006438499549403787,0.000175230554305017,0.0021818624809384346,0.005426366347819567,0.003747006878256798,-0.005193967837840319,-0.4999006688594818,0.21058939397335052,-0.8036007881164551,-0.0,2155.650390625,2461.449951171875,2088.95166015625,2101.459716796875
1767772962.0813103,13480315681547253999,1205,26.530508041381836,27.640239715576172,53.80656051635742,53.68526840209961,-2.2403252124786377,3.626612663269043,-3.371691942214966,1.6469446420669556,-393.3531494140625,359.84661865234375,-336.1880798339844,229.12171936035156,0.0,0.0,0.0,0.0,0.0005993344238959253,0.0003482691536191851,0.0006104368949308991,0.0003455300466157496,-0.0001761710154823959,-0.00017313200805801898,0.00010584569099592045,0.00010404475324321538,-163.16041564941406,165.818603515625,-171.33926391601562,204.18348693847656,-188.36936950683594,-31.318716049194336,121.28287506103516,-270.58880615234375,0.3064079284667969,-0.005531152244657278,0.00763429282233119,-0.0004492407606448978,0.01880091056227684,-0.0018851843196898699,0.011490835808217525,0.24601958692073822,-0.22046586871147156,0.09659679234027863,-0.0,2154.4267578125,2461.321533203125,2120.74755859375,2073.156982421875
1767772963.1316068,13480315681547253999,1226,27.0407772064209,27.9610538482666,53.77146911621094,53.53849411010742,-4.586090087890625,1.6579440832138062,-3.1114695072174072,3.037151336669922,-404.3941650390625,147.1621856689453,-41.030391693115234,346.79754638671875,0.0,0.0,0.0,0.0,0.0006892774254083633,0.00052659772336483,0.000693288107868284,0.0005221156752668321,-9.298981603933498e-05,-8.928328315960243e-05,0.00038352873525582254,0.0003817635297309607,-168.71347045898438,170.26025390625,-164.1652069091797,201.90679931640625,-161.15707397460938,12.609313011169434,150.4545135498047,-224.4532928466797,0.3062000274658203,0.0034467887599021196,-0.006481159944087267,-0.0015340396203100681,-0.016140006482601166,-0.0025581559166312218,-0.010630512610077858,-1.1778292655944824,-0.2240627110004425,-0.8503581285476685,-0.0,2244.52197265625,2514.037841796875,2094.412353515625,1979.673583984375
1767772964.132801,13480315681547253999,1246,27.285879135131836,28.26631736755371,53.881439208984375,53.664886474609375,-0.15883706510066986,4.152083873748779,0.47979867458343506,4.462837219238281,-45.404205322265625,405.6117248535156,51.573768615722656,451.7006530761719,0.0,0.0,0.0,0.0,0.00043680286034941673,0.0003421974543016404,0.00043568742694333196,0.0003390080528333783,0.000553111603949219,0.0005556062096729875,0.0010047794785350561,0.0010036189341917634,-221.76156616210938,134.88563537597656,-196.2412872314453,185.8588409423828,-149.97235107421875,40.85887145996094,171.3888397216797,-210.3221435546875,0.30574798583984375,-0.007580025587230921,0.008797237649559975,-0.0008112959912978113,-0.005291065201163292,-0.001698372303508222,-0.002656972035765648,-0.5636700391769409,-0.11253336817026138,-0.324878066778183,-0.0,2351.3515625,2602.26904296875,2204.724853515625,2090.499267578125
1767772965.1667314,13480315681547253999,1267,27.157712936401367,28.04973030090332,53.885520935058594,53.608333587646484,-0.15036629140377045,5.205859661102295,0.34851738810539246,5.067785739898682,-13.573614120483398,490.89666748046875,31.431297302246094,474.9054870605469,0.0,0.0,0.0,0.0,0.00025054276920855045,0.00015923473984003067,0.0002488082682248205,0.00015631054702680558,0.0005348740378394723,0.0005360411596484482,0.0009186716633848846,0.0009181192726828158,-235.99327087402344,117.83184814453125,-205.22401428222656,178.5086212158203,-136.7181854248047,58.81376266479492,182.7512969970703,-199.85418701171875,0.3059215545654297,-0.004761301912367344,0.011173677630722523,0.0005305097438395023,-0.00811073649674654,-0.0008777743205428123,-0.004324046894907951,-0.7052847146987915,-0.06369195133447647,-0.3904874324798584,-0.0,2333.265625,2563.4619140625,2205.645751953125,2057.475830078125
1767772966.1796122,13480315681547253999,1287,27.164077758789062,27.93403434753418,53.8795051574707,53.49827575683594,0.1772153228521347,-5.352942943572998,-0.36829590797424316,-5.178153991699219,13.384453773498535,-501.53472900390625,-34.05823516845703,-482.3812255859375,0.0,0.0,0.0,0.0,6.995711009949446e-05,0.0001303305762121454,7.220606494229287e-05,0.00013248143659438938,-0.0005761010106652975,-0.000575047975871712,-0.0008111756178550422,-0.0008116441895253956,-158.98907470703125,187.03021240234375,-122.43750762939453,243.9073486328125,-139.2274627685547,55.80967330932617,170.17367553710938,-189.99908447265625,0.30613136291503906,0.004582398571074009,-0.011368151754140854,-0.0008281371556222439,0.0072256941348314285,0.00045683269854635,0.004172811284661293,0.7135102152824402,0.05986937880516052,0.3958266079425812,-0.0,2310.64990234375,2456.3662109375,2151.75537109375,1928.9605712890625
1767772967.181214,13480315681547253999,1307,27.15616226196289,27.93821907043457,53.87540054321289,53.49965286254883,0.21053199470043182,-5.459123611450195,-0.33230194449424744,-5.248420715332031,19.7800350189209,-502.5814208984375,-29.65283966064453,-481.3374328613281,0.0,0.0,0.0,0.0,5.136958498042077e-05,0.00010896550520556048,5.4002535762265325e-05,0.00011079825344495475,-0.0006403826992027462,-0.0006394551019184291,-0.0008747298270463943,-0.0008751332061365247,-156.2124481201172,189.6289825439453,-121.69535827636719,243.49485778808594,-137.88172912597656,55.69141387939453,170.1669158935547,-189.4973907470703,0.3061351776123047,0.00451365252956748,-0.011500054970383644,-0.0007773286779411137,0.007553087081760168,0.0005449647433124483,0.004416510928422213,0.7135767340660095,0.05777381733059883,0.39554816484451294,-0.0,2308.789794921875,2457.630126953125,2149.0029296875,1929.9310302734375
1767772968.212458,13480315681547253999,1328,27.155778884887695,28.056760787963867,53.88505172729492,53.61407470703125,-0.17243537306785583,5.497338771820068,0.322654128074646,5.2086076736450195,-22.973644256591797,499.484375,27.117589950561523,476.90191650390625,0.0,0.0,0.0,0.0,0.00021031111828051507,0.00014109477342572063,0.00020815599418710917,0.00013877623132430017,0.0005797271733172238,0.0005807341658510268,0.0008714462746866047,0.0008709580288268626,-239.74298095703125,113.85648345947266,-210.7147979736328,174.80453491210938,-132.584228515625,59.88691711425781,185.55142211914062,-200.48692321777344,0.3059062957763672,-0.005035105161368847,0.011345302686095238,0.0005888615851290524,-0.007999802939593792,-0.0007443209178745747,-0.004216096829622984,-0.7108505368232727,-0.058932773768901825,-0.39568454027175903,-0.0,2334.497802734375,2565.564453125,2206.56591796875,2060.5830078125
1767772969.2212887,13480315681547253999,1348,27.172216415405273,28.036296844482422,53.88624572753906,53.59328079223633,0.0893944650888443,4.579806804656982,0.2873324751853943,4.627919673919678,6.575306415557861,468.101318359375,30.440814971923828,480.8155212402344,0.0,0.0,0.0,0.0,0.00018807161541189998,0.00013260509877000004,0.0001863773650256917,0.00013059054617770016,0.0004261018766555935,0.00042691989801824093,0.0007440010667778552,0.0007436167215928435,-229.9408721923828,124.65374755859375,-204.2701873779297,180.6911163330078,-134.0869598388672,60.06416320800781,184.71762084960938,-200.8264617919922,0.3059253692626953,-0.0032743040937930346,0.009976700879633427,0.0005194213590584695,-0.007307856809347868,-0.0009717803914099932,-0.003759784623980522,-0.6923906803131104,-0.07667767256498337,-0.3741947412490845,-0.0,2333.77734375,2560.58251953125,2204.50439453125,2049.4189453125
1767772970.2792122,13480315681547253999,1369,27.197031021118164,27.964252471923828,53.88325119018555,53.500267028808594,-0.11535854637622833,-3.9609317779541016,-0.38299036026000977,-4.230967044830322,-15.675771713256836,-411.8191223144531,-39.82369613647461,-444.9884338378906,0.0,0.0,0.0,0.0,3.954650674131699e-05,0.00012599887850228697,3.990150798927061e-05,0.0001292800297960639,-0.0002626837231218815,-0.00026181674911640584,-0.0006084247725084424,-0.0006088251248002052,-187.28713989257812,166.00283813476562,-135.8202667236328,235.1202850341797,-146.2283935546875,58.27390670776367,172.53663635253906,-190.31735229492188,0.3060779571533203,0.004028611350804567,-0.01084248349070549,-0.0007892620633356273,0.006021561101078987,0.0004777124850079417,0.0033448683097958565,0.6653302311897278,0.08040598779916763,0.340243935585022,-0.0,2324.11962890625,2468.29345703125,2159.802001953125,1932.1878662109375
1767772971.3163135,13480315681547253999,1391,27.19216537475586,28.039220809936523,53.887969970703125,53.58184051513672,0.1841583549976349,3.938171625137329,0.33805838227272034,4.131824493408203,23.411640167236328,423.1996765136719,48.751033782958984,469.0611877441406,0.0,0.0,0.0,0.0,0.00018110421660821885,0.00012023264571325853,0.00018002087017521262,0.0001183020431199111,0.0003371938946656883,0.00033800373785197735,0.0007174105849117041,0.0007170466706156731,-227.18145751953125,128.8081512451172,-199.91944885253906,184.68182373046875,-135.98667907714844,60.27925491333008,183.10353088378906,-198.6637420654297,0.3059253692626953,-0.0026654251851141453,0.008947903290390968,0.0004939846112392843,-0.006806858815252781,-0.0010214326903223991,-0.0033353776670992374,-0.6746042966842651,-0.0803118497133255,-0.35469940304756165,-0.0,2337.3173828125,2558.5419921875,2203.33740234375,2043.013671875
1767772972.3702302,13480315681547253999,1412,27.194580078125,28.04322624206543,53.88895797729492,53.58609390258789,-0.11590903997421265,4.149953842163086,0.2480248212814331,4.4699859619140625,1.4582046270370483,458.30078125,32.535335540771484,482.7976379394531,0.0,0.0,0.0,0.0,0.0001823904603952542,0.00011220497253816575,0.00018080577137880027,0.00010948273120447993,0.0003798895049840212,0.0003805804590228945,0.0007555679185315967,0.0007552558672614396,-229.57041931152344,125.61333465576172,-201.67616271972656,182.79270935058594,-135.61705017089844,59.73810577392578,183.04368591308594,-199.10745239257812,0.30591773986816406,-0.0021478598937392235,0.008958530612289906,0.00046922400360926986,-0.006940346211194992,-0.0012698924401775002,-0.0031200461089611053,-0.7055405378341675,-0.09633190929889679,-0.3517228364944458,-0.0,2335.19580078125,2560.49072265625,2204.9296875,2046.857177734375
1767772973.4195487,13480315681547253999,1433,27.203750610351562,28.046892166137695,53.8925666809082,53.584747314453125,0.17643360793590546,3.896580934524536,0.4788912236690521,4.2801408767700195,12.540237426757812,423.6873474121094,43.891666412353516,465.22894287109375,0.0,0.0,0.0,0.0,0.000191630344488658,0.00011144188465550542,0.00019041307677980512,0.000108501008071471,0.00029727283981628716,0.0002980395802296698,0.0007324782782234251,0.0007321392185986042,-226.1364288330078,130.6087646484375,-200.02682495117188,184.5446014404297,-136.2124786376953,59.362850189208984,183.2671661376953,-199.11326599121094,0.3059062957763672,-0.0026763512287288904,0.009310643188655376,0.0005272868438623846,-0.006909494753926992,-0.001119418302550912,-0.003265904262661934,-0.6732594966888428,-0.09090973436832428,-0.3393952250480652,-0.0,2338.59130859375,2559.751708984375,2206.548583984375,2045.5384521484375
1767772974.4209828,13480315681547253999,1453,27.188173294067383,27.964500427246094,53.88192367553711,53.50458908081055,-0.17830851674079895,-4.18229341506958,-0.3511086702346802,-4.42915153503418,-19.152931213378906,-449.78875732421875,-39.08250427246094,-475.88623046875,0.0,0.0,0.0,0.0,4.438645191839896e-05,0.00011773453297792003,4.513038948061876e-05,0.00012056425475748256,-0.0003070145903620869,-0.00030610489193350077,-0.0006408816552720964,-0.0006412924849428236,-184.43190002441406,167.47610473632812,-133.01815795898438,237.28684997558594,-146.84422302246094,58.41580581665039,166.95272827148438,-189.4503631591797,0.3060722351074219,0.003117951564490795,-0.00949370302259922,-0.0007159796077758074,0.005663719959557056,0.0005242964252829552,0.0031179285142570734,0.6903737783432007,0.08603902161121368,0.3580605387687683,-0.0,2321.205078125,2464.6572265625,2158.073974609375,1931.5550537109375
1767772975.4782948,13480315681547253999,1475,27.20847511291504,27.98206901550293,53.88137435913086,53.507652282714844,0.2355952113866806,-4.118500709533691,-0.13155165314674377,-3.704559803009033,-38.4898567199707,-419.3548889160156,-48.80442428588867,-412.6434326171875,0.0,0.0,0.0,0.0,6.539631431223825e-05,0.00010024019138654694,6.653341552009806e-05,0.00010130008740816265,-0.0004614673089236021,-0.00046072143595665693,-0.0006180698401294649,-0.0006184007506817579,-173.24610900878906,178.04165649414062,-133.98208618164062,237.28892517089844,-140.37594604492188,56.9959831237793,173.68927001953125,-191.4485626220703,0.3060474395751953,0.003536517731845379,-0.01020143274217844,-0.0005583391175605357,0.006438255310058594,0.0007645098958164454,0.0035070425365120173,0.694686770439148,0.06462179124355316,0.37429964542388916,-0.0,2323.87841796875,2474.031494140625,2161.536376953125,1938.357421875
1767772982.3541615,13480315681547253999,1481,27.206621170043945,27.969587326049805,53.88456726074219,53.49809265136719,-0.2953295111656189,-4.538916110992432,-0.4573485255241394,-4.607657432556152,-11.637898445129395,-139.09303283691406,-13.011168479919434,-127.78365325927734,0.0,0.0,0.0,0.0,3.654343163361773e-05,0.00013100836076773703,3.6782032111659646e-05,0.00013431202387437224,-0.00031099686748348176,-0.00031014843261800706,-0.0007001024205237627,-0.0007004984654486179,-184.07144165039062,168.14352416992188,-129.25503540039062,239.50880432128906,-146.36618041992188,58.71734619140625,166.56210327148438,-187.5775909423828,0.3060646057128906,0.0035521192476153374,-0.009271369315683842,-0.0008141848957166076,0.005769143346697092,0.0003510421374812722,0.003099976573139429,0.029150107875466347,-0.003834349801763892,0.012443451210856438,-0.0,2322.4521484375,2464.397216796875,2157.235107421875,1927.65380859375
1767772983.3587573,13480315681547253999,1501,27.111467361450195,28.116159439086914,53.847267150878906,53.657997131347656,-7.199925899505615,-0.15506494045257568,-3.136296510696411,4.4392218589782715,-576.3182983398438,-270.5390319824219,-110.24876403808594,416.057861328125,0.0,0.0,0.0,0.0,0.00010700662096496671,-3.288977723059361e-06,0.00010587688302621245,-1.071307087840978e-05,-0.0007873174617998302,-0.0007905040984041989,0.00018760806415230036,0.00018870017083827406,-145.8681182861328,199.23948669433594,-175.6299591064453,215.6201629638672,-144.94842529296875,51.930694580078125,167.2117156982422,-210.11215209960938,0.3059520721435547,0.005988352000713348,-0.005973528604954481,0.0014629382640123367,-0.005011226516216993,0.0031451028771698475,-0.004035974387079477,-1.2066909074783325,0.09109906852245331,-0.6760479211807251,-0.0,2242.55029296875,2525.320556640625,2150.8232421875,2074.261962890625
1767772984.3622642,13480315681547253999,1521,27.23800277709961,28.07854652404785,53.844966888427734,53.522438049316406,3.4377248287200928,0.25079506635665894,0.12817250192165375,-2.348991632461548,304.94366455078125,-61.71405792236328,-101.30030822753906,-396.7583923339844,0.0,0.0,0.0,0.0,1.7321948462267756e-06,-1.9622684703790583e-05,7.1975714490690734e-06,-1.7486014257883653e-05,-0.00067039584973827,-0.0006710857851430774,-0.000715608533937484,-0.0007153027690947056,-160.88064575195312,193.4517822265625,-130.13046264648438,240.17543029785156,-142.68663024902344,53.65717315673828,168.1307373046875,-196.63255310058594,0.30596351623535156,-0.004403194412589073,0.008936474099755287,0.00045592139940708876,0.0025478184688836336,-0.0026823615189641714,0.0034340531565248966,0.4296014606952667,-0.15173889696598053,0.07527219504117966,-0.0,2365.26953125,2542.9208984375,2142.6162109375,1953.6790771484375
1767772985.3686025,13480315681547253999,1541,26.86052894592285,27.600496292114258,53.78574752807617,53.395713806152344,3.0446841716766357,-6.1755170822143555,3.4325079917907715,-1.460355520248413,1.3276225328445435,-202.04737854003906,191.21495056152344,131.26397705078125,0.0,0.0,0.0,0.0,0.00013340110308490694,0.00016033064457587898,0.0001310905208811164,0.00015638055629096925,-0.00038073290488682687,-0.0003787322493735701,-0.00012715795310214162,-0.000128008279716596,-172.9141387939453,169.39480590820312,-163.92752075195312,212.17996215820312,-128.7831573486328,63.174137115478516,184.2039031982422,-187.6766815185547,0.3064746856689453,-0.004190806765109301,0.006743805017322302,0.0004500077629927546,-0.0019531273283064365,-0.0023174392990767956,0.005538563709706068,0.4039040505886078,-0.17604555189609528,0.8616303205490112,-0.0,2257.206787109375,2404.453369140625,2123.421142578125,1885.8369140625
1767772986.407686,13480315681547253999,1562,26.94230842590332,27.928909301757812,53.77528381347656,53.526222229003906,-1.690266489982605,-4.287164211273193,-1.0300472974777222,-3.4659669399261475,61.02763748168945,-606.1351318359375,81.68123626708984,-296.4625549316406,0.0,0.0,0.0,0.0,0.00012256628542672843,0.0004157636722084135,0.00011981217539869249,0.0004228494071867317,-0.0006910361698828638,-0.0006891259108670056,-0.0011092480272054672,-0.0011099828407168388,-154.70016479492188,183.03341674804688,-103.95272064208984,256.228759765625,-129.3081512451172,76.89385223388672,170.0772247314453,-165.7964630126953,0.30624961853027344,0.0017800400964915752,-0.008835096843540668,-0.00032461772207170725,0.0071087065152823925,0.0016282290453091264,0.0029532811604440212,0.4453810155391693,0.2253040075302124,0.1425267457962036,-0.0,2256.5947265625,2456.619873046875,2082.5771484375,1947.3701171875
1767772987.4157612,13480315681547253999,1582,26.94954490661621,27.88609504699707,53.89947509765625,53.65810775756836,-4.361929416656494,3.0048704147338867,-0.6340426206588745,3.897465944290161,-199.5096893310547,302.8358459472656,-204.2780303955078,4.267206192016602,0.0,0.0,0.0,0.0,0.00015790607722010463,0.00016101507935672998,0.00014932427438907325,0.00015102869656402618,-5.708949629479321e-06,-5.570868779614102e-06,-0.00048490866902284324,-0.00048513911315239966,-203.68930053710938,146.50042724609375,-151.28773498535156,242.45201110839844,-129.21292114257812,66.25870513916016,187.62625122070312,-198.1273193359375,0.3060264587402344,-0.00014957573148421943,-0.002189964521676302,-0.002386354608461261,0.0037856476847082376,-0.0026904488913714886,0.0069991047494113445,-0.432213693857193,-0.10603293031454086,0.1449938267469406,-0.0,2252.42919921875,2506.9296875,2205.2001953125,2089.7041015625
1767772988.41963,13480315681547253999,1602,27.156368255615234,28.008026123046875,53.88343811035156,53.58503341674805,0.21771809458732605,4.0835394859313965,0.48143893480300903,4.289915561676025,12.990069389343262,443.40997314453125,44.91783142089844,471.2578125,0.0,0.0,0.0,0.0,0.0001352311228401959,8.356172475032508e-05,0.00013382900215219706,8.119989070110023e-05,0.0002936740929726511,0.00029418294434435666,0.0006150926928967237,0.0006148492102511227,-222.70297241210938,132.83790588378906,-206.2759246826172,183.4917755126953,-131.10354614257812,60.59772491455078,187.1490478515625,-200.45840454101562,0.3059253692626953,-0.0027518016286194324,0.008633150719106197,0.0005712324636988342,-0.006064197514206171,-0.0007265688036568463,-0.0029021583031862974,-0.6632513403892517,-0.0811278373003006,-0.33935922384262085,-0.0,2331.15869140625,2555.14501953125,2202.203369140625,2045.655029296875
1767772989.4600847,13480315681547253999,1623,27.167268753051758,27.95329475402832,53.87679672241211,53.51110076904297,-0.09550294280052185,-3.912122964859009,-0.43183016777038574,-4.216332912445068,-11.428040504455566,-443.5340576171875,-46.77667236328125,-473.197021484375,0.0,0.0,0.0,0.0,2.032222255365923e-06,8.402881940128282e-05,2.6672689728002297e-06,8.692567644175142e-05,-0.0003009159117937088,-0.00030032379436306655,-0.0006839832640253007,-0.0006842408329248428,-184.2202911376953,166.1572723388672,-137.4998779296875,233.13914489746094,-137.78370666503906,59.16587448120117,172.78988647460938,-187.8672332763672,0.3060626983642578,0.0027746574487537146,-0.00895614642649889,-0.0006672860472463071,0.005531112663447857,0.0005722990026697516,0.0030265480745583773,0.6734681129455566,0.08168298006057739,0.3477628827095032,-0.0,2318.144775390625,2463.84912109375,2156.76318359375,1934.966552734375
1767772990.462925,13480315681547253999,1643,27.156124114990234,28.011014938354492,53.8812370300293,53.58469009399414,0.10783253610134125,3.639134168624878,0.4225580394268036,4.118390083312988,11.936128616333008,427.8962097167969,47.787662506103516,478.9767150878906,0.0,0.0,0.0,0.0,0.0001435300800949335,7.642253331141546e-05,0.00014269704115577042,7.358337461482733e-05,0.00023389649868477136,0.00023441255325451493,0.000614118529483676,0.0006138698081485927,-221.3520965576172,135.03684997558594,-203.41114807128906,185.35891723632812,-131.81861877441406,60.57865524291992,185.98619079589844,-199.8422088623047,0.3059253692626953,-0.002812761114910245,0.008737176656723022,0.0006022547604516149,-0.006008884869515896,-0.0007374094566330314,-0.002909257309511304,-0.6594141721725464,-0.0829007551074028,-0.33348798751831055,-0.0,2328.934326171875,2553.2548828125,2199.5361328125,2044.7747802734375
1767772991.4685502,13480315681547253999,1663,27.157657623291016,27.949403762817383,53.87487030029297,53.513431549072266,-0.15658624470233917,-3.8043100833892822,-0.4426451325416565,-4.16792631149292,-15.884337425231934,-425.5314636230469,-47.2622184753418,-465.9849548339844,0.0,0.0,0.0,0.0,3.4938423141284147e-06,7.588127482449636e-05,4.471314696274931e-06,7.844579522497952e-05,-0.00031149230198934674,-0.00031093231518752873,-0.0006776144145987928,-0.0006778559181839228,-183.33316040039062,166.90257263183594,-138.20663452148438,233.13088989257812,-137.7178497314453,58.74049377441406,173.00820922851562,-188.60244750976562,0.3060626983642578,0.0027167079970240593,-0.009269729256629944,-0.0006565254298038781,0.005586010403931141,0.0006555344443768263,0.0030436962842941284,0.659400463104248,0.08133614808320999,0.33837026357650757,-0.0,2315.486083984375,2464.6005859375,2155.67431640625,1937.028564453125
1767772992.5030906,13480315681547253999,1684,27.146528244018555,28.013038635253906,53.879032135009766,53.591312408447266,0.05247994884848595,4.097379207611084,0.3921333849430084,4.388294219970703,7.7562689781188965,450.6645202636719,41.80515670776367,479.68792724609375,0.0,0.0,0.0,0.0,0.00014982146967668086,8.253996929852292e-05,0.0001488467096351087,7.97328248154372e-05,0.0002937714452855289,0.00029433771851472557,0.0006486614583991468,0.0006483803736045957,-224.45269775390625,131.03672790527344,-205.44493103027344,183.048828125,-131.5936737060547,60.36384582519531,186.65151977539062,-199.55140686035156,0.30591773986816406,-0.0033266902901232243,0.009424807503819466,0.0006286243442445993,-0.006379793398082256,-0.0006743534468114376,-0.003220225451514125,-0.669126570224762,-0.07477110624313354,-0.3518923223018646,-0.0,2327.999755859375,2555.20947265625,2199.377685546875,2048.079833984375
1767772993.5103211,13480315681547253999,1704,27.153066635131836,27.943635940551758,53.874755859375,53.51323318481445,-0.017907729372382164,-4.060804843902588,-0.3498583137989044,-4.341561794281006,-5.550198554992676,-448.9820861816406,-39.1376838684082,-475.70892333984375,0.0,0.0,0.0,0.0,4.151437678956427e-06,7.3865863669198e-05,5.366582627175376e-06,7.627462036907673e-05,-0.00037075221189297736,-0.00037017709109932184,-0.0007189781172201037,-0.000719223462510854,-178.0653533935547,171.3590087890625,-136.48060607910156,233.6734619140625,-136.42657470703125,57.69069290161133,172.4002227783203,-188.72828674316406,0.3060646057128906,0.0028160035144537687,-0.009700007736682892,-0.0006594284204766154,0.00594234699383378,0.0007096827030181885,0.0032833090517669916,0.668950080871582,0.07621955871582031,0.3520572781562805,-0.0,2314.63720703125,2462.5537109375,2155.802734375,1937.336669921875
1767772994.5587556,13480315681547253999,1725,27.16010093688965,28.021326065063477,53.882144927978516,53.59083938598633,0.023326154798269272,4.090633392333984,0.33288154006004333,4.3763532638549805,5.99973726272583,453.15118408203125,38.63115692138672,481.15911865234375,0.0,0.0,0.0,0.0,0.00014527558232657611,8.687461377121508e-05,0.00014402209490071982,8.442275429842994e-05,0.0003210012800991535,0.0003215408942196518,0.000657909840811044,0.0006576443556696177,-226.29054260253906,129.11337280273438,-206.319580078125,182.5062255859375,-131.85450744628906,60.57514190673828,186.70770263671875,-199.1783447265625,0.30590248107910156,-0.0030506490729749203,0.009348266758024693,0.0005904528079554439,-0.006449500564485788,-0.0007820704486221075,-0.0032330264803022146,-0.6775112152099609,-0.07721543312072754,-0.35709190368652344,-0.0,2330.84228515625,2556.643310546875,2200.9853515625,2048.29052734375
1767772995.5687706,13480315681547253999,1745,27.148033142089844,27.940404891967773,53.87416076660156,53.514068603515625,0.020370494574308395,-4.002081871032715,-0.3072035014629364,-4.312371730804443,-4.967666149139404,-453.9340515136719,-39.88196563720703,-485.0518798828125,0.0,0.0,0.0,0.0,1.0212319466518238e-05,6.666241824859753e-05,1.1701339644787367e-05,6.863250018795952e-05,-0.0003994786529801786,-0.0003989179967902601,-0.0007133294129744172,-0.0007135618361644447,-176.59950256347656,172.61395263671875,-136.37376403808594,233.72393798828125,-137.38510131835938,57.61241912841797,171.71510314941406,-188.81080627441406,0.3060626983642578,0.0025084903463721275,-0.009430537931621075,-0.0006145648658275604,0.005901834927499294,0.0007945076795294881,0.0031972078140825033,0.6742275357246399,0.07810913026332855,0.35160401463508606,-0.0,2313.7255859375,2462.0732421875,2155.539794921875,1937.37939453125
1767772996.617881,13480315681547253999,1766,27.155860900878906,28.02611541748047,53.88289260864258,53.598426818847656,0.2774861752986908,4.620419979095459,0.49910780787467957,4.643519878387451,19.06201934814453,454.36956787109375,44.973838806152344,467.4552307128906,0.0,0.0,0.0,0.0,0.00015564692148473114,8.427485590800643e-05,0.00015450725913979113,8.158283162629232e-05,0.0003536423319019377,0.0003542454505804926,0.0007062743534334004,0.0007059754570946097,-227.78614807128906,126.78662872314453,-208.7393341064453,180.30996704101562,-130.47035217285156,60.39908218383789,187.42230224609375,-199.42840576171875,0.30588531494140625,-0.00381148187443614,0.009789853356778622,0.0006792872445657849,-0.006581944413483143,-0.000553861609660089,-0.003356856293976307,-0.6659616827964783,-0.06605923920869827,-0.3562352955341339,-0.0,2333.432373046875,2559.556640625,2203.94482421875,2052.972900390625
1767772997.66159,13480315681547253999,1787,27.153650283813477,27.94428062438965,53.87393569946289,53.51233673095703,-0.12758201360702515,-4.0915632247924805,-0.4010300934314728,-4.423520088195801,-10.22931957244873,-445.1586608886719,-39.72574996948242,-477.76263427734375,0.0,0.0,0.0,0.0,1.8934484842247912e-06,7.786372589180246e-05,3.0048363441892434e-06,8.050920587265864e-05,-0.00035058753564953804,-0.00034999169292859733,-0.0007177107036113739,-0.0007179639651440084,-180.2667999267578,169.58505249023438,-136.57083129882812,233.8291015625,-137.28636169433594,58.311527252197266,172.57020568847656,-188.06092834472656,0.30605316162109375,0.0028279165271669626,-0.00950893759727478,-0.0006744884885847569,0.005844678729772568,0.0006572796264663339,0.003220298793166876,0.6681577563285828,0.07914601266384125,0.34830665588378906,-0.0,2314.353515625,2461.876708984375,2154.560791015625,1936.0086669921875
1767772998.669708,13480315681547253999,1807,27.150903701782227,28.011741638183594,53.880348205566406,53.59120178222656,0.07733306288719177,4.0665059089660645,0.4081972539424896,4.415162086486816,6.993382930755615,443.05853271484375,39.7829475402832,473.33203125,0.0,0.0,0.0,0.0,0.00014885637210682034,7.849763642298058e-05,0.0001477902551414445,7.545998960267752e-05,0.00028126014512963593,0.0002817933855112642,0.0006380848935805261,0.00063782196957618,-222.9894256591797,131.9629364013672,-205.56285095214844,183.79977416992188,-130.83204650878906,60.17412185668945,187.14968872070312,-200.0447235107422,0.30590248107910156,-0.0032085184939205647,0.00942216906696558,0.0006284257979132235,-0.006338666193187237,-0.0007116399938240647,-0.0031457161530852318,-0.6669157147407532,-0.08020339161157608,-0.34559452533721924,-0.0,2328.510986328125,2554.9970703125,2200.44873046875,2048.216552734375
1767772999.7137785,13480315681547253999,1828,27.150487899780273,27.94069480895996,53.873653411865234,53.51280975341797,-0.09361854195594788,-4.099264144897461,-0.39452797174453735,-4.379915237426758,-10.100926399230957,-446.8174133300781,-42.81861114501953,-476.680419921875,0.0,0.0,0.0,0.0,2.6908689960691845e-06,7.387426740024239e-05,3.918609763786662e-06,7.628528692293912e-05,-0.000374563445802778,-0.0003740080865100026,-0.0007344371406361461,-0.0007346722995862365,-177.66773986816406,171.5316619873047,-135.4957733154297,234.12203979492188,-136.250732421875,57.660831451416016,172.24386596679688,-188.46725463867188,0.30605506896972656,0.002811367390677333,-0.00936242938041687,-0.0006640443461947143,0.0058897873386740685,0.0006374310469254851,0.0032976437360048294,0.6733826398849487,0.07425440847873688,0.3559018671512604,-0.0,2313.197265625,2461.476318359375,2154.365234375,1936.366943359375
1767773000.7585897,13480315681547253999,1849,27.15510368347168,28.018310546875,53.88137435913086,53.59361267089844,0.12519238889217377,4.187159538269043,0.3926163911819458,4.404078006744385,7.7099738121032715,450.16265869140625,40.03433609008789,476.97003173828125,0.0,0.0,0.0,0.0,0.00014843815006315708,8.037599764065817e-05,0.0001475002063671127,7.759464642731473e-05,0.00029777290183119476,0.00029831990832462907,0.0006460589356720448,0.0006457878043875098,-224.16204833984375,130.80841064453125,-206.23280334472656,183.09951782226562,-130.90151977539062,60.26725769042969,186.65591430664062,-200.3027801513672,0.30588531494140625,-0.00320747634395957,0.009258272126317024,0.0006139295874163508,-0.00632951594889164,-0.0006820671260356903,-0.0031696951482445,-0.67353755235672,-0.07718152552843094,-0.35409581661224365,-0.0,2330.536865234375,2557.02490234375,2201.189208984375,2050.1337890625
1767773001.7698078,13480315681547253999,1869,27.146137237548828,27.942724227905273,53.87040710449219,53.51319122314453,-0.14733588695526123,-3.918454885482788,-0.4783526062965393,-4.4540534019470215,-4.082103729248047,-432.62518310546875,-38.74124526977539,-482.427978515625,0.0,0.0,0.0,0.0,-5.0256389840797056e-06,8.689864625921473e-05,-4.118334800295997e-06,9.031104855239391e-05,-0.00026804383378475904,-0.00026740579050965607,-0.0007048607803881168,-0.0007051301654428244,-185.72740173339844,164.5686492919922,-137.1894073486328,233.02188110351562,-137.14218139648438,58.982643127441406,172.49261474609375,-187.96453857421875,0.3060493469238281,0.0026580579578876495,-0.009337234310805798,-0.0007050053682178259,0.0054242913611233234,0.0006639314233325422,0.0028850252274423838,0.6502524018287659,0.09032798558473587,0.3218088150024414,-0.0,2313.956298828125,2461.79833984375,2151.706298828125,1935.2752685546875
1767773002.8116493,13480315681547253999,1890,27.153175354003906,28.016504287719727,53.8803825378418,53.59270477294922,0.019029587507247925,3.9650368690490723,0.32512250542640686,4.2735595703125,0.4774448275566101,440.373046875,35.53730010986328,472.53106689453125,0.0,0.0,0.0,0.0,0.00014679641753900796,8.30091375974007e-05,0.0001458539190934971,8.031364268390462e-05,0.00028282750281505287,0.000283373607089743,0.0006191240390762687,0.0006188515690155327,-223.13427734375,131.80181884765625,-205.02618408203125,184.47073364257812,-130.96722412109375,60.403011322021484,186.6578826904297,-200.23707580566406,0.30588722229003906,-0.0031451291870325804,0.009688835591077805,0.0005941496347077191,-0.006446388550102711,-0.0008420312660746276,-0.0031736758537590504,-0.6687308549880981,-0.08366841077804565,-0.34707286953926086,-0.0,2328.45703125,2554.96875,2199.44921875,2048.3115234375
1767773003.8571699,13480315681547253999,1911,27.1540470123291,27.942415237426758,53.87418746948242,53.51313018798828,-0.05737711116671562,-4.067660331726074,-0.3636261820793152,-4.361883163452148,-8.120328903198242,-446.391845703125,-39.263545989990234,-478.1556701660156,0.0,0.0,0.0,0.0,3.297144530733931e-06,7.464631198672578e-05,4.4621351662499364e-06,7.710811769356951e-05,-0.0003646438126452267,-0.0003640675568021834,-0.0007172941695898771,-0.0007175401551648974,-179.249267578125,170.455810546875,-136.55043029785156,233.89425659179688,-137.29396057128906,58.10984420776367,172.44769287109375,-188.31854248046875,0.30603981018066406,0.002795857610180974,-0.009466481395065784,-0.0006621633656322956,0.005878825671970844,0.0006675494369119406,0.0032482908573001623,0.6709643602371216,0.0771370530128479,0.3521311283111572,-0.0,2314.861328125,2461.82666015625,2155.1337890625,1936.8035888671875
1767773004.8653553,13480315681547253999,1931,27.15142822265625,28.01202392578125,53.87936782836914,53.59015655517578,0.04598918929696083,4.056429862976074,0.36832135915756226,4.343581676483154,8.921566009521484,444.92822265625,40.933250427246094,475.3768310546875,0.0,0.0,0.0,0.0,0.00014496139192488045,8.238282316597179e-05,0.0001438406325178221,7.972340972628444e-05,0.00030229811090976,0.0003028423816431314,0.0006424705497920513,0.0006422030855901539,-224.26992797851562,130.36692810058594,-205.5785675048828,183.3240509033203,-130.96337890625,60.32341384887695,186.70201110839844,-199.5394744873047,0.30588531494140625,-0.0031529299449175596,0.009312072768807411,0.0006092770490795374,-0.006360378582030535,-0.0007173180347308517,-0.0031912722624838352,-0.6707047820091248,-0.07648250460624695,-0.3524879813194275,-0.0,2328.783203125,2554.546875,2199.205810546875,2047.3572998046875
1767773005.909532,13480315681547253999,1952,27.148597717285156,27.937692642211914,53.87204360961914,53.511253356933594,-0.10258783400058746,-4.103615760803223,-0.37479302287101746,-4.401876449584961,-7.5413899421691895,-447.4041748046875,-37.6449089050293,-476.95672607421875,0.0,0.0,0.0,0.0,-1.8894806430580502e-07,7.626073056599125e-05,8.832175240058859e-07,7.887303945608437e-05,-0.00035680318251252174,-0.00035621545976027846,-0.0007260474958457053,-0.0007262975559569895,-179.67784118652344,169.8966827392578,-135.9789276123047,234.03256225585938,-137.0753936767578,58.184871673583984,172.50889587402344,-187.97323608398438,0.30603981018066406,0.002769174287095666,-0.009367678314447403,-0.0006642067455686629,0.005833530332893133,0.0006603836081922054,0.003199108177796006,0.6729375720024109,0.0795990452170372,0.3515152335166931,-0.0,2313.349609375,2460.45654296875,2153.43017578125,1935.0936279296875
1767773006.9102368,13480315681547253999,1972,27.14531898498535,28.005916595458984,53.87873077392578,53.58955001831055,0.0580073706805706,4.119580268859863,0.31528961658477783,4.171881675720215,12.691519737243652,440.02899169921875,43.4620246887207,464.60369873046875,0.0,0.0,0.0,0.0,0.00013893052528146654,7.337846182053909e-05,0.0001383277849527076,7.084538810886443e-05,0.00028843109612353146,0.0002889353781938553,0.00061842892318964,0.0006181754288263619,-223.37664794921875,131.38754272460938,-204.74917602539062,183.92108154296875,-131.29879760742188,59.85527420043945,185.9423828125,-200.2835235595703,0.30588722229003906,-0.0030547394417226315,0.008878327906131744,0.0005824976251460612,-0.006101661827415228,-0.0006721189711242914,-0.00299997441470623,-0.6715704202651978,-0.07524578273296356,-0.35558152198791504,-0.0,2328.055908203125,2554.11474609375,2197.9658203125,2047.457763671875
1767773007.9619267,13480315681547253999,1993,27.1639347076416,28.013832092285156,53.881649017333984,53.5848274230957,-0.004378357902169228,3.7507576942443848,0.3421526551246643,4.066747188568115,6.300703048706055,428.3088684082031,43.82436752319336,464.50103759765625,0.0,0.0,0.0,0.0,0.0001365573552902788,7.979192741913721e-05,0.00013547610433306545,7.734960672678426e-05,0.00027633202262222767,0.0002768342092167586,0.0006107997614890337,0.0006105598877184093,-223.5640106201172,131.8795623779297,-203.70907592773438,184.7917938232422,-132.45774841308594,60.66316223144531,185.9197540283203,-199.66578674316406,0.3058795928955078,-0.002519425004720688,0.008912711404263973,0.0005451038014143705,-0.006153315305709839,-0.0009498538565821946,-0.002845317590981722,-0.6682771444320679,-0.08844036608934402,-0.3373264968395233,-0.0,2330.248291015625,2553.51708984375,2199.07568359375,2044.4783935546875
1767773008.9691627,13480315681547253999,2013,27.14679527282715,28.008331298828125,53.877403259277344,53.589176177978516,0.01661861687898636,3.93953537940979,0.37586796283721924,4.299502849578857,8.037155151367188,447.8304443359375,44.25297927856445,481.6687927246094,0.0,0.0,0.0,0.0,0.00014728831592947245,8.133303344948217e-05,0.00014631824160460383,7.851446571294218e-05,0.00027971933013759553,0.00028026977088302374,0.0006413314258679748,0.0006410600035451353,-223.5823516845703,131.52540588378906,-204.94984436035156,183.28407287597656,-131.7557373046875,60.70490264892578,186.3487548828125,-199.52613830566406,0.3058815002441406,-0.003205644665285945,0.00920761376619339,0.0006302990368567407,-0.006266000214964151,-0.0006633198354393244,-0.0031570643186569214,-0.6671136617660522,-0.0747397392988205,-0.3492569625377655,-0.0,2327.38427734375,2553.36669921875,2197.68798828125,2046.51611328125
1767773009.9704802,13480315681547253999,2033,27.1480770111084,27.938676834106445,53.87190628051758,53.51303482055664,-0.08632073551416397,-4.087189197540283,-0.38880428671836853,-4.426387310028076,-6.068093299865723,-453.06231689453125,-38.702232360839844,-482.7715148925781,0.0,0.0,0.0,0.0,7.507631494263478e-07,7.700615969952196e-05,1.8938972061732784e-06,7.966122939251363e-05,-0.00035131070762872696,-0.00035071666934527457,-0.0007291286019608378,-0.0007293795351870358,-179.38800048828125,169.5669403076172,-135.74583435058594,233.85386657714844,-136.2958526611328,58.240142822265625,172.36544799804688,-188.25746154785156,0.3060321807861328,0.0026550604961812496,-0.009218602441251278,-0.0006594489677809179,0.005739080719649792,0.0006695549236610532,0.0031373309902846813,0.6723241806030273,0.08059319108724594,0.3493127226829529,-0.0,2313.347900390625,2460.319580078125,2153.34423828125,1935.679931640625
1767773010.9715164,13480315681547253999,2053,27.15216636657715,28.01273536682129,53.878787994384766,53.590274810791016,-0.013402380049228668,3.970353364944458,0.3041934072971344,4.227841854095459,5.125654220581055,437.6554260253906,39.41250228881836,469.6297302246094,0.0,0.0,0.0,0.0,0.00014242174802348018,8.452282781945542e-05,0.0001413326244801283,8.208405051846057e-05,0.0003071133978664875,0.00030765600968152285,0.0006331740296445787,0.000632906798273325,-224.59967041015625,129.9842071533203,-205.4676513671875,183.75852966308594,-131.1029815673828,60.4210090637207,186.13320922851562,-199.39930725097656,0.3058738708496094,-0.003135143080726266,0.009585983119904995,0.000589105358812958,-0.006466742604970932,-0.0008150282083079219,-0.0032380849588662386,-0.6706902980804443,-0.07820606976747513,-0.3541688621044159,-0.0,2328.656005859375,2553.767578125,2197.95654296875,2046.712646484375
1767773012.0108528,13480315681547253999,2074,27.15174102783203,27.937440872192383,53.8731575012207,53.513607025146484,-0.04278647154569626,-3.9782183170318604,-0.3800505995750427,-4.197178363800049,-14.348456382751465,-435.2569885253906,-48.16523742675781,-465.19842529296875,0.0,0.0,0.0,0.0,5.235691787675023e-06,6.655561446677893e-05,6.568915068783099e-06,6.856626714579761e-05,-0.0003940671740565449,-0.00039357683272100985,-0.0007198870880529284,-0.000720094598364085,-176.3191680908203,172.83163452148438,-136.32286071777344,233.75732421875,-136.33526611328125,57.25844955444336,172.22940063476562,-189.17770385742188,0.30602264404296875,0.0028364493045955896,-0.009554948657751083,-0.0006351392949000001,0.006004465743899345,0.0006893416866660118,0.003377281129360199,0.6707841157913208,0.07087396830320358,0.3565807640552521,-0.0,2313.4921875,2462.541015625,2154.80029296875,1937.8807373046875
1767773013.0110343,13480315681547253999,2094,27.158716201782227,28.01441764831543,53.88175964355469,53.59168243408203,0.13987889885902405,4.168574810028076,0.4473274350166321,4.461872577667236,10.396329879760742,446.7613830566406,41.06705856323242,473.3628845214844,0.0,0.0,0.0,0.0,0.00014905474381521344,8.05270901764743e-05,0.00014789951092097908,7.760645530652255e-05,0.0002934313961304724,0.0002939757250715047,0.0006489121005870402,0.0006486476631835103,-223.9094696044922,131.13418579101562,-206.0749053955078,183.2666778564453,-130.88414001464844,60.2896728515625,187.13404846191406,-199.9126434326172,0.3058586120605469,-0.0031503159552812576,0.009231653064489365,0.0006219614297151566,-0.006307447329163551,-0.0006887002382427454,-0.0031376269180327654,-0.6688052415847778,-0.07878044247627258,-0.34785741567611694,-0.0,2330.978759765625,2556.34619140625,2201.856201171875,2049.28955078125
1767773014.0135393,13480315681547253999,2114,27.147991180419922,27.93605613708496,53.87103271484375,53.51205062866211,-0.1628030687570572,-4.063962459564209,-0.42529839277267456,-4.358479976654053,-14.047110557556152,-439.12591552734375,-43.425838470458984,-476.48883056640625,0.0,0.0,0.0,0.0,1.57348699758586e-06,7.515199104091153e-05,2.6545558284851722e-06,7.762896711938083e-05,-0.0003538315650075674,-0.00035326724173501134,-0.0007186603033915162,-0.0007188979652710259,-179.94346618652344,169.71746826171875,-136.31703186035156,233.79872131347656,-137.19857788085938,58.131446838378906,172.38894653320312,-188.1367950439453,0.3060264587402344,0.002665491309016943,-0.009254864417016506,-0.0006454765098169446,0.005764249712228775,0.0006851091748103499,0.0031424041371792555,0.6719800233840942,0.08051491528749466,0.3489554524421692,-0.0,2312.644775390625,2460.31005859375,2152.4501953125,1935.1513671875
1767773015.0157654,13480315681547253999,2134,27.152999877929688,28.010353088378906,53.879154205322266,53.589027404785156,0.10137206315994263,3.8592395782470703,0.37893596291542053,4.198141574859619,11.720165252685547,435.3931579589844,42.97732162475586,475.23065185546875,0.0,0.0,0.0,0.0,0.0001435568992746994,8.227481157518923e-05,0.00014259347517509013,7.968642603373155e-05,0.00027251694700680673,0.0002730602864176035,0.0006197035545483232,0.0006194395245984197,-222.514404296875,132.58016967773438,-204.92605590820312,184.58181762695312,-131.17295837402344,60.39248275756836,186.3227996826172,-199.7222900390625,0.3058643341064453,-0.0031256400980055332,0.00935430359095335,0.0006108084926381707,-0.00628291442990303,-0.0007435322040691972,-0.003135599661618471,-0.6608813405036926,-0.07841746509075165,-0.34340235590934753,-0.0,2328.7880859375,2553.548095703125,2198.45849609375,2046.4886474609375
1767773016.015908,13480315681547253999,2154,27.156198501586914,27.943649291992188,53.874881744384766,53.516258239746094,-0.07858386635780334,-3.9781150817871094,-0.3948762118816376,-4.315418243408203,-15.877140045166016,-445.9805908203125,-46.9295654296875,-481.208251953125,0.0,0.0,0.0,0.0,7.308235581149347e-06,6.694481271551922e-05,8.802043339528609e-06,6.90338492859155e-05,-0.00039110195939429104,-0.00039057034882716835,-0.0007230053306557238,-0.0007232313510030508,-177.34024047851562,172.15122985839844,-136.2086639404297,234.22647094726562,-137.3828582763672,57.66118621826172,172.13360595703125,-188.8116912841797,0.30600547790527344,0.0027404266875237226,-0.009222541935741901,-0.0006502738688141108,0.005892151966691017,0.0006369731854647398,0.003314149798825383,0.6714490652084351,0.07145698368549347,0.35444962978363037,-0.0,2314.744140625,2462.83642578125,2155.50439453125,1938.7650146484375
1767773017.021856,13480315681547253999,2174,27.15601921081543,28.014238357543945,53.87957000732422,53.590816497802734,0.04445764794945717,4.072178840637207,0.3467493951320648,4.252135753631592,10.011707305908203,437.25048828125,41.91459274291992,462.875244140625,0.0,0.0,0.0,0.0,0.0001440798951080069,8.359617640962824e-05,0.00014295695291366428,8.108136535156518e-05,0.00031283090356737375,0.0003133770078420639,0.0006424858584068716,0.0006422176957130432,-225.0484619140625,129.61459350585938,-205.92926025390625,183.29971313476562,-131.05661010742188,60.38059616088867,186.24005126953125,-199.44166564941406,0.30585670471191406,-0.0032093042973428965,0.00952018704265356,0.0006033281097188592,-0.006448557134717703,-0.0007529702270403504,-0.0032597805839031935,-0.6694633364677429,-0.07565672695636749,-0.35515347123146057,-0.0,2329.882568359375,2554.616455078125,2199.023193359375,2047.23828125
1767773018.0576513,13480315681547253999,2195,27.15130043029785,27.939697265625,53.87227249145508,53.51298522949219,-0.046851977705955505,-4.042187690734863,-0.3655889630317688,-4.388913154602051,-1.2978259325027466,-450.846435546875,-35.62751770019531,-478.3877868652344,0.0,0.0,0.0,0.0,1.2698916407316574e-07,7.75824737502262e-05,1.2098765864720917e-06,8.031628385651857e-05,-0.0003441442968323827,-0.0003435340477153659,-0.000721671269275248,-0.0007219301769509912,-180.00775146484375,169.14651489257812,-136.23611450195312,233.6566619873047,-136.37413024902344,58.29144287109375,172.54885864257812,-188.35548400878906,0.3060111999511719,0.0026639834977686405,-0.009355545975267887,-0.0006624659290537238,0.005742260254919529,0.0006950015667825937,0.003109134966507554,0.6699506640434265,0.08202239125967026,0.34656089544296265,-0.0,2314.45751953125,2460.9580078125,2153.974365234375,1936.1976318359375
1767773019.0587459,13480315681547253999,2215,27.15298080444336,28.012826919555664,53.87889099121094,53.59280014038086,0.05769137665629387,4.063687324523926,0.34289804100990295,4.343104362487793,6.986386775970459,442.650634765625,38.272972106933594,472.8934326171875,0.0,0.0,0.0,0.0,0.0001468639966333285,8.118801633827388e-05,0.00014588631165679544,7.842940249247476e-05,0.00029585338779725134,0.00029639710555784404,0.0006333530764095485,0.0006330830510705709,-223.9075927734375,130.80935668945312,-205.5647430419922,183.66099548339844,-130.89698791503906,60.26545715332031,186.5002899169922,-200.22207641601562,0.3058509826660156,-0.003202808555215597,0.009442511945962906,0.0006088456138968468,-0.006389051675796509,-0.000734261586330831,-0.003200085833668709,-0.6723452806472778,-0.07847414910793304,-0.3533426821231842,-0.0,2328.923828125,2554.796875,2199.02490234375,2048.69873046875
1767773020.0610461,13480315681547253999,2235,27.15215301513672,27.937889099121094,53.87282943725586,53.512969970703125,-0.09033136069774628,-4.048791885375977,-0.37186914682388306,-4.328808784484863,-10.863757133483887,-438.7125244140625,-41.143795013427734,-471.35272216796875,0.0,0.0,0.0,0.0,3.1705635592516046e-06,7.114568870747462e-05,4.42548389401054e-06,7.344088953686878e-05,-0.0003764794091694057,-0.00037593202432617545,-0.0007203823188319802,-0.0007206153823062778,-178.33441162109375,171.1795196533203,-136.31272888183594,234.04513549804688,-137.19447326660156,57.892398834228516,172.3671417236328,-188.51966857910156,0.30600547790527344,0.0028574804309755564,-0.009589413180947304,-0.0006602972862310708,0.0059625315479934216,0.0006725063431076705,0.0033180073369294405,0.6691277623176575,0.07511388510465622,0.3528473973274231,-0.0,2313.951904296875,2461.52880859375,2154.23046875,1937.0830078125
1767773021.0697875,13480315681547253999,2255,27.15481185913086,28.012989044189453,53.878807067871094,53.59067916870117,-0.03922879695892334,4.025981426239014,0.2808379530906677,4.303097248077393,3.0732104778289795,444.2873229980469,35.23945617675781,470.98284912109375,0.0,0.0,0.0,0.0,0.00014265369100030512,8.426052227150649e-05,0.00014141456631477922,8.17418476799503e-05,0.00031813475652597845,0.00031866139033809304,0.0006409226334653795,0.0006406630855053663,-225.26385498046875,129.14768981933594,-205.46151733398438,183.3451385498047,-131.0419158935547,60.3760871887207,186.5068817138672,-199.3784942626953,0.3058490753173828,-0.0030612521804869175,0.009690535254776478,0.0005878705997020006,-0.00653841532766819,-0.0008670701645314693,-0.003250802168622613,-0.6740755438804626,-0.0804581418633461,-0.35450220108032227,-0.0,2328.77587890625,2553.98779296875,2198.09765625,2046.94384765625
1767773022.1210945,13480315681547253999,2276,27.1447811126709,27.931476593017578,53.87057876586914,53.511775970458984,-0.05830778181552887,-4.093755722045898,-0.3718265891075134,-4.383971691131592,-5.483438491821289,-444.75628662109375,-39.8519401550293,-475.9440612792969,0.0,0.0,0.0,0.0,1.3264103699839325e-06,7.111473678378388e-05,2.614487584651215e-06,7.346000347752124e-05,-0.0003828985500149429,-0.0003823577135335654,-0.0007358252187259495,-0.0007360535673797131,-176.98568725585938,171.50296020507812,-135.28564453125,234.11119079589844,-136.09439086914062,57.8516960144043,172.18447875976562,-188.5471649169922,0.30600929260253906,0.0027751214802265167,-0.009495578706264496,-0.00065155781339854,0.005955679342150688,0.0006893693935126066,0.0033046239987015724,0.6742033958435059,0.07629335671663284,0.35485371947288513,-0.0,2312.33251953125,2459.83203125,2152.48681640625,1935.6669921875
1767773023.1629612,13480315681547253999,2297,27.152332305908203,28.00953483581543,53.87897491455078,53.59208679199219,0.019040988758206367,3.866236925125122,0.3325554430484772,4.269050598144531,1.333448886871338,433.5685729980469,35.6651725769043,472.9281921386719,0.0,0.0,0.0,0.0,0.0001484080421505496,8.02379654487595e-05,0.0001475089811719954,7.729716890025884e-05,0.00026278116274625063,0.00026333198184147477,0.0006111618131399155,0.0006108887027949095,-221.8219451904297,133.19239807128906,-204.6010284423828,184.93276977539062,-130.87962341308594,60.26681900024414,186.71363830566406,-200.50662231445312,0.3058452606201172,-0.0031497993040829897,0.00951728317886591,0.0006106129731051624,-0.006340185645967722,-0.0007843849016353488,-0.0031074932776391506,-0.6650640368461609,-0.08381780982017517,-0.341874897480011,-0.0,2327.76611328125,2553.3994140625,2198.610107421875,2048.04248046875
1767773024.1702394,13480315681547253999,2317,27.15322494506836,27.93739128112793,53.87190246582031,53.51123046875,-0.14586690068244934,-4.213751316070557,-0.4265054166316986,-4.443392753601074,-11.51948070526123,-448.841796875,-41.991729736328125,-476.27880859375,0.0,0.0,0.0,0.0,-5.388742465584073e-07,8.064260327955708e-05,4.346250648268324e-07,8.33802405395545e-05,-0.00035497057251632214,-0.00035437746555544436,-0.0007341759046539664,-0.000734429806470871,-179.82318115234375,169.71432495117188,-135.45480346679688,234.03207397460938,-137.11923217773438,58.398834228515625,172.4085693359375,-187.99090576171875,0.3060016632080078,0.0028335279785096645,-0.009391519241034985,-0.0006734337075613439,0.005861000623553991,0.0006365338922478259,0.0032373727299273014,0.6748600602149963,0.0795411765575409,0.3539576530456543,-0.0,2313.67626953125,2459.58056640625,2152.824951171875,1934.872314453125
1767773025.2127638,13480315681547253999,2338,27.151256561279297,28.00926971435547,53.87815856933594,53.59043502807617,0.036606136709451675,3.995051145553589,0.35121554136276245,4.301424026489258,8.83057975769043,444.7855529785156,39.808834075927734,476.8540344238281,0.0,0.0,0.0,0.0,0.0001435948652215302,8.223989425459877e-05,0.0001425223599653691,7.963884127093479e-05,0.0002980173157993704,0.00029854688909836113,0.000638367491774261,0.0006381066050380468,-224.0303955078125,130.64715576171875,-205.34986877441406,183.5601043701172,-131.0540771484375,60.316219329833984,186.58416748046875,-199.59564208984375,0.30583953857421875,-0.003164513036608696,0.009443729184567928,0.0006084282649680972,-0.006382893770933151,-0.0007468746043741703,-0.0032023016829043627,-0.6688140034675598,-0.07690703868865967,-0.35128355026245117,-0.0,2328.448486328125,2553.686767578125,2198.095703125,2047.3411865234375
1767773026.2206266,13480315681547253999,2358,27.15253257751465,27.93917465209961,53.87236404418945,53.51359176635742,-0.0681052878499031,-4.122783660888672,-0.3677479922771454,-4.428384304046631,-5.45182466506958,-454.00640869140625,-36.90399932861328,-479.21624755859375,0.0,0.0,0.0,0.0,1.6457414631076972e-06,7.70200349506922e-05,2.816447249642806e-06,7.962569361552596e-05,-0.0003653102903626859,-0.00036470996565185487,-0.0007372467662207782,-0.0007375009008683264,-178.41696166992188,170.89822387695312,-135.29600524902344,234.2176971435547,-136.311767578125,57.82289123535156,172.26470947265625,-188.22425842285156,0.30599403381347656,0.002711797831580043,-0.009245220571756363,-0.0006597272586077452,0.005812051706016064,0.0006564172217622399,0.0032002402003854513,0.6754576563835144,0.07824159413576126,0.354291707277298,-0.0,2314.10400390625,2460.585205078125,2153.76171875,1936.2772216796875
1767773027.2662108,13480315681547253999,2379,27.15526580810547,28.012184143066406,53.878753662109375,53.59063720703125,0.05440698191523552,3.9649977684020996,0.36691662669181824,4.2555413246154785,11.302098274230957,438.6398010253906,44.42005920410156,472.3250732421875,0.0,0.0,0.0,0.0,0.00014445620763581246,8.686048386152834e-05,0.0001433061552233994,8.442987746093422e-05,0.000306256435578689,0.000306824134895578,0.0006406036554835737,0.0006403253064490855,-224.6106414794922,130.0342254638672,-205.7940673828125,183.10198974609375,-131.03076171875,60.552833557128906,186.2105712890625,-199.66151428222656,0.3058319091796875,-0.0032336008735001087,0.009426415897905827,0.0006098494632169604,-0.0064033884555101395,-0.0007176317740231752,-0.0032443543896079063,-0.6659318804740906,-0.07391653954982758,-0.35180386900901794,-0.0,2329.85986328125,2553.637451171875,2198.533447265625,2047.165283203125
1767773028.2702904,13480315681547253999,2399,27.156763076782227,27.941713333129883,53.87434005737305,53.515098571777344,0.010632208548486233,-3.85433030128479,-0.28572770953178406,-4.240496635437012,-2.739436149597168,-445.5421447753906,-36.39937973022461,-482.18988037109375,0.0,0.0,0.0,0.0,6.227519406820647e-06,7.397057925118133e-05,7.316777100641048e-06,7.638080569449812e-05,-0.0003415582759771496,-0.00034096071613021195,-0.0006869992939755321,-0.0006872537196613848,-181.1732177734375,169.09461975097656,-138.37307739257812,232.9315643310547,-137.74710083007812,58.138118743896484,172.6748504638672,-188.75730895996094,0.30597686767578125,0.0025296977255493402,-0.009458870626986027,-0.0006422432488761842,0.005682141520082951,0.0007727683987468481,0.003026722464710474,0.6643638610839844,0.0830174908041954,0.3409075140953064,-0.0,2317.04248046875,2462.5810546875,2156.6015625,1938.3983154296875
1767773029.3121126,13480315681547253999,2420,27.153060913085938,28.01018714904785,53.87779235839844,53.58975601196289,0.06929633021354675,3.9408607482910156,0.3962979018688202,4.265326023101807,13.308226585388184,441.9518127441406,46.216854095458984,475.5517883300781,0.0,0.0,0.0,0.0,0.00014475948410108685,8.87611968209967e-05,0.00014351554273162037,8.634760888526216e-05,0.00030811221222393215,0.0003087083459831774,0.0006467734347097576,0.0006464848993346095,-224.70811462402344,129.878173828125,-206.02113342285156,182.7007598876953,-130.99539184570312,60.64653015136719,186.15098571777344,-199.44227600097656,0.3058338165283203,-0.003327504964545369,0.009386273100972176,0.0006261949893087149,-0.006393786519765854,-0.0006596230668947101,-0.003276539733633399,-0.6624587178230286,-0.0703144371509552,-0.3505547046661377,-0.0,2329.56689453125,2553.091552734375,2198.0087890625,2046.6103515625
1767773030.3660927,13480315681547253999,2441,27.155242919921875,28.009906768798828,53.879817962646484,53.59117889404297,0.2064768522977829,4.054140090942383,0.4830664098262787,4.365278244018555,18.058204650878906,439.96588134765625,48.01886749267578,473.989013671875,0.0,0.0,0.0,0.0,0.00014900966198183596,8.269915269920602e-05,0.00014796003233641386,7.991107122506946e-05,0.0002810269652400166,0.0002816073247231543,0.0006408022018149495,0.0006405203603208065,-223.2095489501953,131.98284912109375,-205.99667358398438,183.6141357421875,-130.95834350585938,60.414955139160156,186.6926727294922,-199.74502563476562,0.30582618713378906,-0.003339683637022972,0.009310235269367695,0.0006470358348451555,-0.0062633659690618515,-0.0006237286143004894,-0.003152563003823161,-0.657203733921051,-0.07387831807136536,-0.3425317704677582,-0.0,2330.71875,2554.4853515625,2200.250732421875,2048.2841796875
1767773031.3705134,13480315681547253999,2461,27.15445327758789,27.937410354614258,53.87301254272461,53.51353073120117,-0.027222037315368652,-4.039588451385498,-0.3333434462547302,-4.295212268829346,-7.280651569366455,-442.4654235839844,-40.10394287109375,-474.46990966796875,0.0,0.0,0.0,0.0,5.883244284632383e-06,7.0117341238074e-05,7.158473636081908e-06,7.229357288451865e-05,-0.0003854063106700778,-0.00038485866389237344,-0.0007092136074788868,-0.0007094467873685062,-177.7384796142578,171.75022888183594,-136.9984588623047,233.75119018554688,-137.33309936523438,57.8245964050293,172.36451721191406,-188.783447265625,0.30597686767578125,0.002768258098512888,-0.009738080203533173,-0.0006416289834305644,0.005999424494802952,0.0007481341017410159,0.00329983769915998,0.6704097986221313,0.07657219469547272,0.3527868986129761,-0.0,2314.92138671875,2461.62255859375,2154.9150390625,1937.7235107421875
1767773032.4130144,13480315681547253999,2482,27.15991973876953,28.01215171813965,53.879791259765625,53.58967208862305,0.05433456599712372,3.820296049118042,0.35626187920570374,4.144862651824951,8.639741897583008,432.356201171875,42.57966995239258,468.67559814453125,0.0,0.0,0.0,0.0,0.00014255398127716035,8.37749321362935e-05,0.00014151589130051434,8.126527245622128e-05,0.00027706995024345815,0.0002776136971078813,0.0006141519406810403,0.0006138875614851713,-222.938232421875,132.21263122558594,-204.69789123535156,184.56671142578125,-131.29623413085938,60.45673751831055,186.28936767578125,-200.06007385253906,0.3058204650878906,-0.0029998363461345434,0.009454691782593727,0.0005893930792808533,-0.006336248479783535,-0.0008419167716056108,-0.003101892303675413,-0.6614596247673035,-0.08246572315692902,-0.34158992767333984,-0.0,2330.0224609375,2553.278076171875,2198.65478515625,2046.5135498046875
1767773033.465989,13480315681547253999,2503,27.15458106994629,28.008256912231445,53.878971099853516,53.59100341796875,0.10870391875505447,3.9402623176574707,0.3830130696296692,4.269637107849121,12.368757247924805,432.36468505859375,41.018680572509766,466.5680236816406,0.0,0.0,0.0,0.0,0.00014823679521214217,7.987483695615083e-05,0.0001472819858463481,7.696855027461424e-05,0.00026974096545018256,0.000270300981355831,0.0006223323871381581,0.0006220592767931521,-222.3940887451172,132.72402954101562,-204.74642944335938,184.5786590576172,-130.95455932617188,60.2490234375,187.05130004882812,-200.0091094970703,0.3058185577392578,-0.003207150613889098,0.009390306659042835,0.0006254597683437169,-0.006288663484156132,-0.0007130216108635068,-0.0031181424856185913,-0.660550594329834,-0.07950997352600098,-0.342145711183548,-0.0,2329.3515625,2553.510009765625,2199.01171875,2047.491455078125
1767773034.4684494,13480315681547253999,2523,27.153018951416016,27.93752098083496,53.87172317504883,53.51285171508789,-0.08554817736148834,-4.102214336395264,-0.386247456073761,-4.415720462799072,-4.805943965911865,-448.2542419433594,-39.27096939086914,-478.62420654296875,0.0,0.0,0.0,0.0,-2.649048838065937e-07,8.004783012438565e-05,7.415518439302105e-07,8.282122144009918e-05,-0.0003426960320211947,-0.0003420989087317139,-0.000726505124475807,-0.0007267596083693206,-180.07688903808594,169.02877807617188,-135.91632080078125,233.8595733642578,-136.3690185546875,58.416175842285156,172.49534606933594,-188.18142700195312,0.30597496032714844,0.002733425237238407,-0.009326741099357605,-0.0006716030184179544,0.005755576305091381,0.0006570504629053175,0.003149673342704773,0.6716898679733276,0.08109155297279358,0.3492358922958374,-0.0,2314.324462890625,2460.152099609375,2153.167236328125,1935.914306640625
1767773035.5196605,13480315681547253999,2544,27.157955169677734,27.941505432128906,53.873695373535156,53.515506744384766,-0.006077903788536787,-3.988959312438965,-0.3422169089317322,-4.245673179626465,-8.090272903442383,-443.89324951171875,-40.67920684814453,-469.44024658203125,0.0,0.0,0.0,0.0,6.4101936914084945e-06,7.196635124273598e-05,7.693372026551515e-06,7.42436750442721e-05,-0.00037984331720508635,-0.0003792834177147597,-0.0007149985758587718,-0.0007152360631152987,-177.5034637451172,171.93992614746094,-136.63575744628906,233.66294860839844,-136.58868408203125,57.571937561035156,172.25894165039062,-188.9612579345703,0.30596351623535156,0.0026703313924372196,-0.00943507719784975,-0.0006338053499348462,0.005875488743185997,0.0007252577925100923,0.0032254692632704973,0.6718146204948425,0.07593890279531479,0.35314393043518066,-0.0,2315.57275390625,2462.67724609375,2155.537109375,1938.69970703125
1767773036.5562062,13480315681547253999,2565,27.15470314025879,28.009798049926758,53.8798828125,53.59333801269531,0.16389848291873932,4.153653144836426,0.45460745692253113,4.3749613761901855,12.385663986206055,440.4160461425781,44.47725296020508,467.914794921875,0.0,0.0,0.0,0.0,0.00015090126544237137,7.988511788425967e-05,0.00015000395069364458,7.696228567510843e-05,0.0002825329138431698,0.0002831152523867786,0.0006373936193995178,0.000637109624221921,-223.25730895996094,131.83433532714844,-205.86582946777344,183.60848999023438,-130.81961059570312,60.24628829956055,186.8501739501953,-200.4526824951172,0.30581092834472656,-0.003325988305732608,0.00929850060492754,0.0006358980899676681,-0.006272656377404928,-0.0006377471145242453,-0.0031205317936837673,-0.6630578637123108,-0.07619381695985794,-0.34585437178611755,-0.0,2330.6162109375,2555.161376953125,2200.4931640625,2049.667724609375
1767773037.5588582,13480315681547253999,2585,27.15468978881836,27.938817977905273,53.8724250793457,53.514163970947266,-0.04855908080935478,-3.9214296340942383,-0.3604300618171692,-4.2820658683776855,-6.146552562713623,-441.12164306640625,-40.61149215698242,-476.0748291015625,0.0,0.0,0.0,0.0,2.45879255089676e-06,7.677560643060133e-05,3.494704742479371e-06,7.937246118672192e-05,-0.00033783746766857803,-0.0003372565552126616,-0.0007038807380013168,-0.0007041284698061645,-180.5975799560547,168.86578369140625,-137.27479553222656,233.1885528564453,-136.62449645996094,58.29722213745117,172.61231994628906,-188.7279052734375,0.30596351623535156,0.002643281826749444,-0.009436148218810558,-0.0006542457267642021,0.005712032318115234,0.0007209958275780082,0.00308546656742692,0.6659138202667236,0.08177611231803894,0.34353330731391907,-0.0,2315.447265625,2461.8388671875,2154.51904296875,1937.396484375
1767773038.6125288,13480315681547253999,2606,27.152664184570312,27.934093475341797,53.8714599609375,53.51261520385742,-0.11686459928750992,-3.9158272743225098,-0.40328946709632874,-4.2314934730529785,-11.845674514770508,-420.9996337890625,-43.66020584106445,-463.3877258300781,0.0,0.0,0.0,0.0,1.192603576782858e-06,7.43642813176848e-05,2.2526262455357937e-06,7.683887815801427e-05,-0.00033995878766290843,-0.00033943107700906694,-0.0007030554115772247,-0.00070328259607777,-180.40362548828125,169.02899169921875,-137.31141662597656,233.18087768554688,-136.51675415039062,58.17341613769531,172.67774963378906,-188.90769958496094,0.3059654235839844,0.00291813793592155,-0.009793970733880997,-0.0006728547741658986,0.005874285474419594,0.000681077828630805,0.0032619317062199116,0.6599792242050171,0.07737825065851212,0.34440934658050537,-0.0,2314.28125,2461.821533203125,2153.58154296875,1937.101318359375
1767773039.6662028,13480315681547253999,2627,27.157323837280273,27.939023971557617,53.87397384643555,53.514827728271484,0.00297916610725224,-3.898495674133301,-0.30408039689064026,-4.183570861816406,-9.432287216186523,-438.8423156738281,-42.13490295410156,-472.4082336425781,0.0,0.0,0.0,0.0,7.629126685060328e-06,6.799101538490504e-05,8.882679139787797e-06,7.005564839346334e-05,-0.00037970690755173564,-0.0003791731724049896,-0.0006952261901460588,-0.0006954536074772477,-178.25857543945312,171.4709930419922,-137.83029174804688,233.27484130859375,-137.53009033203125,57.74554443359375,172.4379425048828,-189.0629425048828,0.3059558868408203,0.002666984684765339,-0.00959294755011797,-0.0006266107666306198,0.005907566752284765,0.000762757146731019,0.0032305310014635324,0.6691415309906006,0.07649397850036621,0.35107651352882385,-0.0,2315.976806640625,2462.77880859375,2156.169189453125,1938.815185546875
