timestamp,session_uid,frame,suspension_pos_rl,suspension_pos_rr,suspension_pos_fl,suspension_pos_fr,suspension_vel_rl,suspension_vel_rr,suspension_vel_fl,suspension_vel_fr,suspension_acc_rl,suspension_acc_rr,suspension_acc_fl,suspension_acc_fr,wheel_speed_rl,wheel_speed_rr,wheel_speed_fl,wheel_speed_fr,wheel_slip_ratio_rl,wheel_slip_ratio_rr,wheel_slip_ratio_fl,wheel_slip_ratio_fr,wheel_slip_angle_rl,wheel_slip_angle_rr,wheel_slip_angle_fl,wheel_slip_angle_fr,wheel_lat_force_rl,wheel_lat_force_rr,wheel_lat_force_fl,wheel_lat_force_fr,wheel_long_force_rl,wheel_long_force_rr,wheel_long_force_fl,wheel_long_force_fr,height_of_cog,local_velocity_x,local_velocity_y,local_velocity_z,angular_velocity_x,angular_velocity_y,angular_velocity_z,angular_acceleration_x,angular_acceleration_y,angular_acceleration_z,front_wheels_angle,wheel_vert_force_rl,wheel_vert_force_rr,wheel_vert_force_fl,wheel_vert_force_fr
1767759355.020537,9124707774134530792,0,32.27903747558594,31.97071647644043,53.540191650390625,53.655216217041016,0.7858226895332336,0.5784245729446411,0.16178159415721893,-0.11690381914377213,38.95735168457031,28.675540924072266,8.02036190032959,-5.795535564422607,0.0,0.0,0.0,0.0,-0.0004968923167325556,-0.0005011402536183596,-0.0004964695544913411,-0.0005009997403249145,-0.00017241181922145188,-0.00017521175323054194,0.00013670831685885787,0.00013718772970605642,-117.22370910644531,174.04786682128906,-95.15216064453125,155.20321655273438,-67.74304962158203,-51.07548522949219,139.32754516601562,149.3014373779297,0.3016085624694824,9.882549056783319e-05,-0.0001982991525437683,-0.0001923901290865615,0.00222857971675694,-0.0017756943125277758,0.0038507389836013317,0.11048238724470139,-0.08803047984838486,0.19090132415294647,-0.0,2525.079833984375,2463.819091796875,1963.1094970703125,2043.28173828125
1767759356.035361,9124707774134530792,20,28.972515106201172,28.67151641845703,53.5256462097168,53.655853271484375,0.4902854561805725,0.4840269386768341,0.018551943823695183,0.006929039489477873,2.1189467906951904,-4.103781223297119,3.540515184402466,-0.6839631795883179,0.0,0.0,0.0,0.0,-0.0005746504757553339,-0.0005321901990100741,-0.000574980687815696,-0.0005306137027218938,-4.4716223783325404e-05,-4.884531153948046e-05,-1.0462048521731049e-05,-8.673250704305246e-06,-102.05803680419922,138.08291625976562,-71.8960189819336,145.4937286376953,-53.373355865478516,-37.85029602050781,150.34617614746094,163.42344665527344,0.3045806884765625,7.976864435477182e-05,0.00035733531694859266,0.0001955295301740989,0.0022414878476411104,-0.001332895364612341,0.0022485079243779182,0.0005454942001961172,0.0009509757510386407,0.0004712585068773478,-0.0,2489.83056640625,2436.912841796875,1953.183349609375,2039.16796875
1767759357.0773802,9124707774134530792,41,29.075349807739258,28.719032287597656,53.56140899658203,53.65740203857422,-0.022910533472895622,-0.0060349698178470135,-0.01497566606849432,-0.0020116567611694336,0.09387730807065964,0.27492639422416687,-0.04023313149809837,-0.04023313894867897,0.0,0.0,0.0,0.0,-0.000545757997315377,-0.0005336746689863503,-0.0005461886757984757,-0.0005339821800589561,-0.00010789762018248439,-0.0001119381413445808,1.2335850442468654e-05,1.409084870829247e-05,-102.64598846435547,139.44918823242188,-67.95526885986328,150.88702392578125,-54.92805099487305,-35.420326232910156,152.3874053955078,165.4983673095703,0.30449724197387695,-0.00014798268966842443,0.00032980169635266066,6.85871418681927e-05,0.001231219619512558,-0.0014096389058977365,0.0031123911030590534,0.00048085578600876033,-5.849869558005594e-05,-0.0003799376718234271,-0.0,2505.887451171875,2442.28076171875,1975.79638671875,2043.467529296875
1767759358.0804946,9124707774134530792,61,29.071020126342773,28.716699600219727,53.558258056640625,53.65467071533203,-0.0034645197447389364,-0.008605420589447021,-0.0020116567611694336,-0.003352761035785079,-0.15422700345516205,-0.7510184645652771,0.1743435561656952,0.026822088286280632,0.0,0.0,0.0,0.0,-0.0005465737776830792,-0.0005516596720553935,-0.0005465837311930954,-0.0005523895961232483,-0.000130437285406515,-0.00013454297732096165,4.1150939068757e-05,4.293409801903181e-05,-103.6446533203125,138.2702178955078,-66.82030487060547,151.6432342529297,-56.28345489501953,-34.76689529418945,150.8455047607422,164.84188842773438,0.3045029640197754,-0.00013704464072361588,0.00039393160841427743,0.00012789883476216346,0.0012593597639352083,-0.0014427396235987544,0.003137304913252592,-0.0003078812442254275,0.00028926643426530063,0.00030980908195488155,-0.0,2505.248046875,2441.503173828125,1973.3714599609375,2041.7890625
1767759359.1362555,9124707774134530792,82,29.069381713867188,28.716571807861328,53.5568733215332,53.65359115600586,-0.00011175870167789981,0.0012293456820771098,-0.00044703480671159923,0.0,-0.11399386823177338,0.04693864658474922,-0.10728834569454193,0.026822086423635483,0.0,0.0,0.0,0.0,-0.0005421718815341592,-0.00055464799515903,-0.0005419974331744015,-0.000555560109205544,-0.0001405485818395391,-0.00014464258856605738,5.333480658009648e-05,5.5111297115217894e-05,-104.60826110839844,137.83724975585938,-66.3488998413086,151.7456512451172,-56.93207550048828,-35.28083038330078,150.2596435546875,164.50816345214844,0.30450439453125,-0.00012544236960820854,0.00041489553404971957,0.00014325109077617526,0.001308620092459023,-0.0014611168298870325,0.0031150036957114935,2.090586167469155e-05,-9.47853459365433e-06,-3.4910623071482405e-05,-0.0,2505.0986328125,2441.31005859375,1972.318603515625,2041.0999755859375
1767759360.1808975,9124707774134530792,103,29.069561004638672,28.716781616210938,53.5568962097168,53.653587341308594,-0.002235173946246505,0.0,-0.0011175869731232524,0.00022351740335579962,0.0,0.0871717780828476,0.026822088286280632,0.026822086423635483,0.0,0.0,0.0,0.0,-0.0005421059904620051,-0.0005545416497625411,-0.0005419341614469886,-0.0005554559174925089,-0.00014052668120712042,-0.00014462170656770468,5.325582606019452e-05,5.5032189266057685e-05,-104.58699798583984,137.80108642578125,-66.32592010498047,151.71502685546875,-56.912593841552734,-35.26295852661133,150.22860717773438,164.47711181640625,0.3045029640197754,-0.00012538860028143972,0.0004142179968766868,0.00014325237134471536,0.0013092063600197434,-0.0014609344070777297,0.0031143163796514273,2.411892455711495e-05,-1.813983362808358e-05,-1.9683500795508735e-05,-0.0,2505.11572265625,2441.33837890625,1972.33251953125,2041.09765625
1767759361.181302,9124707774134530792,123,33.70459747314453,33.49641418457031,53.167999267578125,53.29698181152344,0.5614756941795349,0.8370726704597473,-0.25972723960876465,-0.23201106488704681,73.46569061279297,75.5041732788086,-3.969670057296753,-3.5941598415374756,12.449400901794434,12.500941276550293,3.936866044998169,4.021374702453613,1.6630885601043701,1.6692832708358765,-0.0017868081340566278,-0.0025838303845375776,-0.0023186644539237022,-0.007576161529868841,-0.0012609183322638273,0.000615414697676897,-124.59642028808594,154.02232360839844,37.57244110107422,22.97071647644043,4910.5322265625,4874.921875,207.2310028076172,-310.56719970703125,0.301987886428833,-0.016630660742521286,0.01695367507636547,3.9907751083374023,0.00040269375313073397,0.0069822571240365505,0.0004997270880267024,0.019064757972955704,0.026455296203494072,0.014990847557783127,-0.0,2821.4794921875,2791.051513671875,1657.2041015625,1729.45166015625
1767759362.2323637,9124707774134530792,144,31.16212272644043,31.319536209106445,53.047157287597656,53.11316680908203,0.0,0.0,0.0,0.0,268.3282470703125,236.2893524169922,550.4830932617188,696.7305297851562,11.254539489746094,11.23693561553955,10.637171745300293,10.63819408416748,0.055805664509534836,0.054358866065740585,-0.0012608134420588613,-0.0011970654595643282,0.003228584537282586,-0.003796966280788183,-0.0016527489060536027,0.0010615639621391892,-494.7822265625,558.8287963867188,68.04923248291016,-12.391153335571289,4773.720703125,4781.7822265625,-142.620361328125,-141.1948699951172,0.303882360458374,-0.0031013761181384325,0.010196971707046032,10.648635864257812,0.01340815145522356,-0.00031262513948604465,0.01219498086720705,-0.46588006615638733,0.017557039856910706,-0.15631896257400513,-0.0,2783.001953125,2824.087890625,1523.9169921875,1579.6444091796875
1767759363.2791378,9124707774134530792,165,34.626827239990234,33.16987228393555,53.665008544921875,54.11609649658203,-67.85139465332031,-50.054264068603516,12.254788398742676,22.448299407958984,-646.8150024414062,-108.2807846069336,8.033180236816406,604.5161743164062,21.097352981567383,21.167613983154297,20.018985748291016,20.02349090576172,0.032895367592573166,0.033481258898973465,-0.0007385279750451446,-0.0006900033331476152,0.004104981664568186,-0.0038882216904312372,-0.0012128655798733234,0.0016646776348352432,-736.3085327148438,694.766357421875,-23.889455795288086,11.509475708007812,3901.868408203125,3650.27734375,-109.39989471435547,-110.81990051269531,0.29895782470703125,0.0013125133700668812,0.1278485208749771,20.041343688964844,-0.029384911060333252,0.0008795442408882082,-0.01570814847946167,0.34435269236564636,-0.005674314219504595,0.49163568019866943,-0.0,3088.6982421875,2788.32568359375,2210.98828125,2486.8876953125
1767759364.2860928,9124707774134530792,185,35.710262298583984,36.87736511230469,54.01447296142578,53.75225830078125,29.114482879638672,21.854413986206055,14.382674217224121,10.728611946105957,-439.54693603515625,-1367.68505859375,429.44842529296875,-276.0797119140625,29.305496215820312,29.2420711517334,28.16172218322754,28.158899307250977,0.04032391682267189,0.03795545548200607,-0.0009212868753820658,-0.0009616956813260913,0.004237162880599499,-0.003962622955441475,-0.0013833536067977548,0.0015191063284873962,-792.9801025390625,793.0098876953125,-16.121469497680664,-11.189674377441406,4964.9765625,4996.24462890625,-146.4304656982422,-144.77041625976562,0.2965738773345947,0.004551899153739214,0.08410442620515823,28.186630249023438,0.0029217074625194073,-0.0009974894346669316,-0.0049564046785235405,-0.2000817507505417,-0.027752786874771118,0.11490786820650101,-0.0,3532.468505859375,3731.614013671875,2352.147705078125,2184.04736328125
1767759365.3300436,9124707774134530792,206,31.259033203125,31.209453582763672,54.241214752197266,54.23214340209961,26.117897033691406,36.735755920410156,-6.204172611236572,-7.233246803283691,1109.482177734375,1319.4254150390625,-279.70074462890625,-424.6338806152344,29.272157669067383,29.267908096313477,28.955774307250977,28.955936431884766,0.016618788242340088,0.016437040641903877,-0.0005019909585826099,-0.0005042904522269964,0.0035793802235275507,-0.0034999747294932604,-0.0015177868772298098,0.001614223700016737,-728.730712890625,722.864990234375,5.808446884155273,-17.73167610168457,2360.100341796875,2353.9189453125,-77.962890625,-77.79750061035156,0.30030083656311035,0.001141609507612884,0.1621832549571991,28.967824935913086,0.02515086531639099,0.0002779304631985724,0.0181030984967947,0.6934027671813965,-0.002726098522543907,0.6146146059036255,-0.0,2920.44580078125,2951.67626953125,2351.5244140625,2337.84521484375
1767759366.3348498,9124707774134530792,226,30.097187042236328,32.26251983642578,54.632965087890625,53.95142364501953,-10.988226890563965,-3.3422558307647705,-3.389641523361206,2.4893133640289307,-471.9882507324219,72.52691650390625,-321.0335693359375,86.28665161132812,29.548351287841797,29.527502059936523,29.260635375976562,29.25749969482422,0.0063043576665222645,0.006036032922565937,-0.00010885480878641829,-0.00011532896314747632,0.0037535522133111954,-0.0034611860755831003,-0.0016227102605625987,0.0014931688783690333,-760.946044921875,738.4900512695312,-6.448814868927002,-1.0668998956680298,897.5011596679688,933.67578125,-18.425580978393555,-17.825531005859375,0.30090951919555664,0.005339792929589748,0.17969055473804474,29.266098022460938,0.01471631322056055,-0.00179906259290874,-0.018118413165211678,-0.06743939220905304,0.015896767377853394,0.40673986077308655,-0.0,2710.128662109375,3164.20361328125,2645.080078125,2298.27587890625
1767759367.3774877,9124707774134530792,247,31.472272872924805,31.447786331176758,54.31735610961914,54.34545135498047,-4.314780235290527,-0.6061791777610779,0.8015334010124207,-0.006482004653662443,-148.2725067138672,-4.1574201583862305,101.4947738647461,24.475154876708984,29.520109176635742,29.51858901977539,29.264230728149414,29.263803482055664,0.005625054240226746,0.005611525382846594,-0.00010479748016223311,-0.000103312311694026,0.003462894121184945,-0.003795928554609418,-0.00176267942879349,0.0013611942995339632,-735.7694091796875,793.32763671875,17.310884475708008,31.01816749572754,850.3609008789062,853.001220703125,-17.204313278198242,-17.00044059753418,0.3009335994720459,-0.00540549261495471,0.17557966709136963,29.270355224609375,0.00024274921452160925,-0.0002649212838150561,-0.0005915856454521418,0.001988681498914957,-0.004044212866574526,-0.0026818071492016315,-0.0,3031.90185546875,3058.01416015625,2502.299560546875,2516.90771484375
1767759368.43451,9124707774134530792,268,31.49518394470215,31.336668014526367,54.33369445800781,54.41663360595703,-3.5107879638671875,-1.8315016031265259,0.940784752368927,1.7572938203811646,92.34843444824219,129.1617889404297,65.32518768310547,80.27850341796875,29.545637130737305,29.545902252197266,29.25641441345215,29.25642204284668,0.006423847749829292,0.006431634072214365,-0.0001187501402455382,-0.00011923072452191263,0.003478158265352249,-0.003771433839574456,-0.0017280465690419078,0.0014052834594622254,-737.7457885742188,787.1682739257812,11.326664924621582,31.194602966308594,970.7300415039062,970.16162109375,-19.567846298217773,-19.907773971557617,0.30127382278442383,-0.004664899781346321,0.1770227998495102,29.263471603393555,0.0007329017971642315,-7.337285205721855e-05,-0.0006377278477884829,0.130440354347229,-0.001618917565792799,0.1019793301820755,-0.0,3038.2744140625,3024.5634765625,2523.8056640625,2575.701416015625
1767759369.476576,9124707774134530792,289,30.132755279541016,30.87661361694336,54.11575698852539,54.76346969604492,33.40155029296875,-31.379610061645508,17.39569091796875,-16.330629348754883,-255.0308837890625,327.4707336425781,-181.75975036621094,179.31895446777344,28.217132568359375,28.374099731445312,28.272119522094727,28.46907615661621,-0.002045030239969492,-0.002985407831147313,-0.00014598786947317421,0.0003002426528837532,-0.0028882459737360477,-0.009870355017483234,0.0002594298857729882,0.0024025391321629286,324.27056884765625,1787.2742919921875,-223.7839813232422,-78.2967300415039,-298.4273376464844,-461.5164794921875,-23.931419372558594,51.03253936767578,0.3015129566192627,0.023861907422542572,0.17891710996627808,28.367595672607422,-0.029372407123446465,0.11639953404664993,0.055256783962249756,0.6610199809074402,-2.984860897064209,-0.9398120045661926,-0.011144006624817848,2775.895263671875,3127.322998046875,2468.5361328125,2699.231201171875
1767759370.4768069,9124707774134530792,309,29.963891983032227,30.34695816040039,54.03470993041992,54.69036865234375,41.05478286743164,-41.5004768371582,22.96820068359375,-22.595149993896484,118.1178970336914,3.2521817684173584,5.404586315155029,-63.326908111572266,26.4538516998291,26.591917037963867,26.510805130004883,26.683277130126953,-0.0022051632404327393,-0.0030667877290397882,-0.00013845233479514718,0.00030001174309290946,-0.0013174981577321887,-0.008237810805439949,0.0015561151085421443,0.003737788647413254,67.21435546875,1489.9625244140625,-376.8624267578125,-245.22763061523438,-323.5293273925781,-452.46710205078125,-22.524192810058594,49.40862274169922,0.3015871047973633,0.05105947330594063,0.17364373803138733,26.593496322631836,-0.04661111161112785,0.10233260691165924,0.07220613956451416,0.6102619767189026,-2.7304108142852783,-0.7569175362586975,-0.010232361033558846,2821.2490234375,2904.6650390625,2440.107421875,2599.149169921875
1767759371.4817998,9124707774134530792,329,26.748741149902344,32.42133331298828,52.17377853393555,56.11173629760742,-7.650330066680908,7.327570915222168,-5.220695972442627,0.5608051419258118,-37.77888870239258,93.40790557861328,118.6072769165039,-26.553871154785156,24.49437713623047,25.077051162719727,24.39826774597168,25.274911880493164,0.004617258906364441,-0.006278292275965214,0.0006269871955737472,2.5478011593804695e-05,-0.018725426867604256,-0.024777868762612343,-0.035711802542209625,-0.04523323476314545,1917.4117431640625,4200.10888671875,1765.9696044921875,5320.08740234375,424.2845458984375,-1061.0072021484375,41.66727066040039,4.642301082611084,0.3027920722961426,0.3934761583805084,0.1573353111743927,24.807035446166992,-0.0007407821249216795,0.5589656233787537,0.008614879101514816,-0.35664045810699463,1.181416392326355,0.13675473630428314,-0.09343869239091873,1617.7064208984375,4076.4365234375,1066.7421875,3876.5029296875
1767759372.5251834,9124707774134530792,350,32.06300354003906,24.60475730895996,54.11038589477539,53.680137634277344,61.36748504638672,-168.5302276611328,-108.84984588623047,-8.278414726257324,-3735.170166015625,9872.5068359375,-17055.10546875,5828.533203125,25.40643882751465,25.16893768310547,25.539926528930664,25.28923797607422,-0.004434669855982065,-0.0033183987252414227,0.001237100688740611,0.0001530175213702023,0.019055377691984177,0.012467190623283386,-6.548053988808533e-06,0.0027975125703960657,-2264.102294921875,-0.0,0.0,-52.261837005615234,-557.0455322265625,-0.0,0.0,-15.595173835754395,0.3032575249671936,0.18292322754859924,0.11631971597671509,25.372976303100586,0.029110606759786606,-0.11555037647485733,-0.07449512183666229,3.563711404800415,3.090721368789673,-7.722318649291992,0.010137718170881271,3854.266357421875,915.6007690429688,771.3563232421875,2401.8095703125
1767759373.575303,9124707774134530792,371,31.568843841552734,26.989194869995117,55.5959587097168,52.74299621582031,109.68474578857422,-67.50582885742188,176.7664794921875,-10.688908576965332,13532.9716796875,-5770.65771484375,16051.6552734375,2384.799560546875,22.52271270751953,22.241321563720703,22.609996795654297,22.34567642211914,-0.004876413382589817,-0.0032981312833726406,0.00030749873258173466,1.0462625141371973e-05,0.019471941515803337,0.013001859188079834,0.005501792300492525,0.006171821150928736,-2427.02099609375,-0.0,-918.8719482421875,-0.0,-625.325439453125,-0.0,52.173377990722656,-0.0,0.29672545194625854,0.08475776761770248,0.07036155462265015,22.462753295898438,0.07308407127857208,-0.15747757256031036,-0.10684435814619064,4.867705821990967,1.561840534210205,-5.76350736618042,0.017216885462403297,4040.474609375,1877.017578125,4457.3251953125,1790.8734130859375
1767759374.5833168,9124707774134530792,391,31.954120635986328,33.45036697387695,53.70195388793945,53.054420471191406,268.5135192871094,2.107086181640625,47.870487213134766,-305.517578125,16864.40234375,-18308.49609375,6473.1787109375,-33319.91015625,19.742685317993164,19.80351448059082,19.855886459350586,19.891464233398438,-0.0025257780216634274,-0.005222199484705925,0.00017118355026468635,0.0012647610856220126,0.003298116149380803,-0.0036376293282955885,0.0059865498915314674,0.008918515406548977,-563.3155517578125,559.7032470703125,-0.0,-0.0,-278.1545715332031,-612.0874633789062,0.0,0.0,0.2949405312538147,0.010109157301485538,0.14657120406627655,19.830129623413086,-0.08040212839841843,0.0037165300454944372,-0.029240773990750313,-4.368771076202393,0.3160070478916168,-5.4744439125061035,0.006250064354389906,4812.52685546875,3212.73388671875,1742.91552734375,100.70005798339844
1767759375.6306117,9124707774134530792,413,27.339862823486328,27.990163803100586,54.72780990600586,53.91793441772461,-181.00244140625,-66.41779327392578,79.15332794189453,-109.06376647949219,-15616.099609375,550.2814331054688,3924.880859375,-6544.88232421875,19.919099807739258,19.999469757080078,20.089609146118164,20.083850860595703,-0.005233169067651033,-0.005812930874526501,0.0001624704455025494,0.00039732566801831126,0.005941805429756641,-0.000952240836340934,0.00035333004780113697,0.0035664131864905357,-0.0,263.8586730957031,-65.81636810302734,-72.3173599243164,-0.0,-508.2201843261719,10.598848342895508,-46.48847198486328,0.30221402645111084,0.04311501979827881,0.1461683213710785,20.061182022094727,-0.040234412997961044,-0.0062324488535523415,0.05095784366130829,3.4062089920043945,0.15919597446918488,0.5171130299568176,-0.0,1258.844970703125,1280.7777099609375,2617.44921875,1850.1416015625
1767759376.6325796,9124707774134530792,433,34.21495056152344,35.29440689086914,53.872188568115234,53.11650085449219,50.00880432128906,41.90035629272461,0.48985809087753296,17.462583541870117,-4498.6298828125,157.9969024658203,73.0069351196289,908.1785888671875,24.708778381347656,24.253576278686523,18.980480194091797,18.974689483642578,0.2814157009124756,0.25907081365585327,-0.0011808336712419987,-0.0013022706843912601,0.005352751351892948,-0.002433219226077199,-0.0004922426305711269,0.002293117344379425,-221.33473205566406,193.55174255371094,-59.73054122924805,-93.63116455078125,4394.08544921875,4810.55126953125,-133.15576171875,-130.70750427246094,0.30011415481567383,0.02622767724096775,0.05431443452835083,19.000585556030273,0.010834910906851292,-0.0022007268853485584,-0.034680046141147614,-0.28590577840805054,0.04459262639284134,-0.9665429592132568,-0.0,3120.865966796875,3570.61572265625,2145.47314453125,1753.875732421875
1767759377.6837811,9124707774134530792,454,28.512845993041992,30.06073760986328,54.33145523071289,53.63239288330078,4.730966091156006,-12.621190071105957,3.94382643699646,-8.70822811126709,753.608642578125,-876.6490478515625,847.4780883789062,-514.2973022460938,20.50339698791504,20.45371437072754,20.590578079223633,20.523828506469727,-0.004118218086659908,-0.00324546592310071,-7.336225098697469e-05,0.00035117845982313156,0.005363954696804285,-0.0013952566077932715,0.008228229358792305,0.009699794463813305,-769.80078125,260.4510498046875,-919.5341186523438,-701.0288696289062,-447.5210876464844,-357.7822265625,-9.60482120513916,37.23948287963867,0.3042341470718384,-0.028787575662136078,0.13244184851646423,20.553834915161133,-0.030359875410795212,-0.04563404992222786,0.0258184801787138,-0.9835112690925598,-1.5141284465789795,1.056762933731079,0.014511196874082088,2593.64501953125,2695.843505859375,2536.1328125,1941.256591796875
1767759378.7286062,9124707774134530792,475,38.897377014160156,23.838756561279297,55.03654098510742,51.76823425292969,273.2537536621094,-291.13330078125,-81.44275665283203,1.9452424049377441,2513.48193359375,-5440.07177734375,-12943.423828125,10267.8740234375,18.16617774963379,18.150955200195312,18.285839080810547,18.288719177246094,-0.0037355495151132345,-0.007385605946183205,0.0005156133556738496,0.00038386689266189933,0.0022508613765239716,-0.0047250911593437195,-0.002255144063383341,0.0008781493525020778,-0.0,0.0,87.8289566040039,-0.0,-0.0,-0.0,-39.01811981201172,-0.0,0.3070880174636841,0.003739193081855774,0.16048753261566162,18.273887634277344,0.20249132812023163,0.008507517166435719,-0.3758721947669983,11.7973051071167,0.7934600114822388,-21.653255462646484,-0.0,4816.09619140625,588.142822265625,2638.56884765625,634.1063842773438
1767759379.736384,9124707774134530792,495,32.64019012451172,29.69801902770996,53.59084701538086,55.16209411621094,-54.49078369140625,-8.421679496765137,-25.11840057373047,55.239173889160156,-4615.5869140625,6518.07568359375,-5696.67724609375,-2919.364013671875,29.985763549804688,28.95583152770996,18.06136131286621,17.96770477294922,0.6322218775749207,0.6591892838478088,-0.0005961601855233312,-0.0009614416630938649,0.015774555504322052,0.008543704636394978,2.6282461476512253e-05,0.0030716124456375837,-0.0,47.74498748779297,-87.95986938476562,-126.01802062988281,0.0,4832.072265625,-61.068538665771484,-68.64002227783203,0.2999894618988037,0.13937531411647797,0.05242303013801575,18.021474838256836,0.046738401055336,-0.04885400831699371,-0.04657464101910591,3.915334463119507,0.1118517816066742,-0.31210264563560486,-0.0,969.0138549804688,3372.19775390625,2291.96484375,2862.3681640625
1767759380.7862532,9124707774134530792,516,29.019330978393555,29.720857620239258,55.442237854003906,53.61442947387695,-14.029589653015137,104.9955062866211,21.008197784423828,0.3911280632019043,-3421.331787109375,18179.248046875,-1023.3023071289062,269.752685546875,18.002849578857422,17.795467376708984,18.001523971557617,17.997549057006836,-0.005793631076812744,-0.006182168144732714,0.00046928453957661986,5.785986650153063e-05,0.003988843411207199,-0.002597789978608489,-0.00196539587341249,0.0011727666715160012,-593.0879516601562,0.0,-48.11720275878906,30.61402702331543,-667.2908325195312,-0.0,58.56555938720703,-5.322222709655762,0.3034381866455078,0.0015370558248832822,0.1285971850156784,17.98869514465332,0.08304976671934128,0.0030536125414073467,-0.07708954066038132,3.4047739505767822,0.6198602914810181,-3.8174750804901123,-0.0,3216.036865234375,2926.67529296875,3137.49560546875,2063.372802734375
1767759381.83201,9124707774134530792,538,31.29047203063965,33.6163444519043,54.72534942626953,54.15370178222656,-7.689580917358398,-5.978670120239258,0.7206743359565735,-5.650979042053223,842.9042358398438,-667.4203491210938,896.8282470703125,-219.27886962890625,13.814176559448242,14.438576698303223,3.007007975952547e-09,-1.839869057107535e-08,-0.17110322415828705,-0.12976522743701935,-1.0,-1.0,0.0059373280964791775,-0.0015508291544392705,-0.004131741356104612,-0.0009600682533346117,-196.82632446289062,136.57791137695312,10.620343208312988,2.210853099822998,-2728.535400390625,-3419.014404296875,-2595.03515625,-2298.542724609375,0.29717326164245605,0.0009155131410807371,0.1035759449005127,16.74104881286621,-0.050505559891462326,-0.023604711517691612,0.0032812939025461674,-0.7922700047492981,-0.20229294896125793,0.6396727561950684,-0.0,1759.591064453125,2281.116943359375,2659.444091796875,2331.619873046875
1767759382.8350701,9124707774134530792,558,25.874603271484375,27.902612686157227,55.9678955078125,54.819252014160156,-69.26114654541016,-44.39775085449219,35.72706604003906,18.429061889648438,-6.22149133682251,1720.468994140625,-7.531614303588867,-120.32587432861328,6.127218723297119,6.380514144897461,8.828194618225098,7.6705522537231445,-0.5794938206672668,-0.5319029092788696,-0.4069207012653351,-0.4566154181957245,0.11237411946058273,0.11257988214492798,-0.0634956955909729,-0.06529579311609268,-600.10791015625,-587.9818115234375,442.0735168457031,652.7457275390625,-2701.1240234375,-3092.543701171875,-3862.708251953125,-3399.883544921875,0.3052103519439697,0.3657722771167755,0.07582543790340424,8.628358840942383,0.00559842586517334,-0.37365585565567017,-0.048336971551179886,0.10564270615577698,1.8007134199142456,-0.5984415411949158,-0.018953166902065277,1882.236328125,2175.275390625,2872.449951171875,2372.930419921875
1767759383.8862565,9124707774134530792,579,28.573394775390625,27.42264747619629,53.6675910949707,54.111568450927734,-14.647194862365723,-10.4388427734375,-6.689537525177002,-12.706008911132812,813.63037109375,230.98568725585938,317.4958801269531,-949.1897583007812,10.673492431640625,10.673548698425293,10.644078254699707,10.645127296447754,-0.00437257532030344,-0.0026400701608508825,-9.612987923901528e-05,0.0001306785416090861,0.0028028772212564945,-0.0036960768047720194,-0.002037382684648037,0.0009947638027369976,-412.8423156738281,497.8374328613281,71.12351989746094,21.467660903930664,-439.67425537109375,254.69691467285156,-10.16052532196045,14.702749252319336,0.30633068084716797,-0.005488120019435883,0.08169707655906677,10.639504432678223,0.01093869935721159,0.00037301069824025035,-0.0014697951264679432,0.14143440127372742,-0.04415057599544525,0.2557079792022705,-0.0,2385.21533203125,2191.56201171875,1993.6849365234375,2199.97705078125
1767759384.9302611,9124707774134530792,600,22.70958709716797,32.661861419677734,53.02926254272461,54.18668746948242,-67.89512634277344,33.00183868408203,-46.02913284301758,69.243408203125,1156.5428466796875,-2161.90625,1686.5093994140625,5848.38916015625,8.322741508483887,9.080489158630371,8.39766788482666,9.388744354248047,0.02399858646094799,-0.0073980907909572124,0.0006135551957413554,-0.00035104528069496155,-0.008947700262069702,-0.014110233634710312,-0.03145661950111389,-0.08832540363073349,459.0745849609375,1889.1624755859375,976.4840087890625,1982.7130126953125,945.1927490234375,-925.4533081054688,24.05047035217285,-10.587759017944336,0.30462002754211426,1.0105160474777222,0.10115045309066772,8.597729682922363,-0.03703313693404198,0.6633632779121399,0.0012874919921159744,-4.656363487243652,0.4447261095046997,6.546151638031006,-0.30413997173309326,856.25634765625,3510.896484375,1710.3724365234375,3075.10693359375
1767759385.9773736,9124707774134530792,621,26.165754318237305,32.675865173339844,54.373390197753906,54.0385856628418,74.92564392089844,-197.75872802734375,-10.308052062988281,16.075448989868164,6035.65576171875,-31712.185546875,-3552.529541015625,883.3222045898438,5.9612650871276855,6.402584552764893,5.955630302429199,6.7635321617126465,0.013872154988348484,-0.015969369560480118,-0.0001045743192662485,4.783768599736504e-05,-0.005761369597166777,-0.01114566158503294,0.004565949086099863,-0.0536993034183979,408.9728088378906,802.0482177734375,-297.7200927734375,3057.608154296875,-1156.380126953125,-869.3762817382812,10.477533340454102,-3.958911657333374,0.30522990226745605,0.8193851709365845,0.005959704518318176,6.064050197601318,-0.024765565991401672,0.5274380445480347,0.12297456711530685,0.6556196808815002,0.5679551362991333,1.3197120428085327,-0.30413997173309326,2470.12060546875,1629.39697265625,2132.5224609375,2379.23828125
1767759387.0286071,9124707774134530792,642,22.228967666625977,35.80276107788086,55.41814422607422,50.47638702392578,-68.91266632080078,13.907332420349121,45.103546142578125,-62.048828125,-13356.0,-1093.1033935546875,3267.948486328125,-3009.831787109375,10.147518157958984,7.599884986877441,4.238166809082031,4.703125953674316,0.6498957276344299,0.30383288860321045,-0.0004717460251413286,-0.014343077316880226,-0.013888676650822163,-0.01808503083884716,-0.0009334399364888668,-0.050674889236688614,0.0,400.0257873535156,75.22416687011719,0.0,0.0,4422.72705078125,-40.608943939208984,-0.0,0.30958104133605957,0.5394127368927002,-0.005517058074474335,4.369251251220703,0.0027992797549813986,0.38903918862342834,0.03214789927005768,-2.2769932746887207,0.9243747591972351,-3.59814190864563,-0.30413997173309326,98.37931823730469,3524.90087890625,3085.1015625,0.0
1767759388.0329354,9124707774134530792,662,31.03435516357422,26.044958114624023,52.847686767578125,54.67641830444336,1.4145299196243286,1.2979655265808105,-0.1821666806936264,-0.1249462366104126,-16.837562561035156,-13.411044120788574,5.418062686920166,2.4944534301757812,0.0,0.0,0.0,0.0,-0.0015942424070090055,0.0008107888279482722,-0.00271152937784791,-0.0001799018937163055,0.0024239602498710155,0.002421114593744278,-0.0030208106618374586,-0.003761843778192997,136.4055938720703,120.19792175292969,-61.17670822143555,-107.69784545898438,314.6249694824219,-154.9696807861328,-433.7056579589844,412.1351318359375,0.3061254024505615,-0.0018489186186343431,-0.0006744936108589172,0.001702120411209762,0.0024245185777544975,-0.002818708075210452,-0.00019467643869575113,0.0014447466237470508,0.006938748527318239,-0.0021344611886888742,0.3401709794998169,2904.379638671875,1913.004638671875,1584.275634765625,2583.772705078125
1767759389.0351632,9124707774134530792,682,28.356687545776367,29.058454513549805,53.64655303955078,53.80023193359375,0.0887364074587822,0.20463018119335175,-0.006258487235754728,0.0346451997756958,-0.10058283060789108,-0.4559755027294159,0.06705522537231445,-0.724196195602417,0.0,0.0,0.0,0.0,-0.0007393474807031453,0.00046627389383502305,-0.0007697000401094556,0.0004970760201103985,0.001630492159165442,0.0016295942477881908,-0.001688145101070404,-0.0016876946901902556,-67.43305206298828,21.35455322265625,-16.58488655090332,148.61691284179688,247.80348205566406,-148.4525146484375,303.88494873046875,-298.6834411621094,0.30501270294189453,0.0008616319391876459,-0.0007074977620504797,0.0005639907903969288,0.0043002646416425705,0.000746782636269927,-0.0006304859416559339,0.0005862861289642751,0.004045022185891867,0.00046423517051152885,-0.0,2396.748046875,2482.0224609375,2048.150390625,2117.78564453125
1767759390.0715082,9124707774134530792,703,27.81557846069336,29.4395694732666,54.205326080322266,53.229270935058594,-6.419643402099609,4.433467864990234,2.1113455295562744,-1.550093173980713,27.097003936767578,40.09232711791992,-17.125896453857422,8.958578109741211,0.0,0.0,0.0,0.0,-0.0005594781832769513,-1.8854261725209653e-05,-0.0005100100534036756,6.382195715559646e-05,0.0007007701206021011,0.0006945314235053957,-0.000836982624605298,-0.0007967041456140578,-88.91140747070312,-1.2832770347595215,46.53604507446289,260.8388977050781,215.8727264404297,-149.57894897460938,430.71795654296875,-378.1092224121094,0.3051633834838867,-0.0001006434831651859,0.001147535047493875,0.0008865058189257979,-0.005128496326506138,1.9498952497087885e-06,0.0013300834689289331,0.00855076964944601,0.00019253096252214164,0.013334461487829685,-0.0964219942688942,2259.66943359375,2553.948974609375,2361.46337890625,1801.79296875
1767759391.1236901,9124707774134530792,724,28.222028732299805,28.81412696838379,53.68633270263672,53.718936920166016,2.5411694049835205,-1.3345106840133667,2.221092700958252,-1.0525435209274292,348.3988037109375,-109.11225128173828,224.47406005859375,-159.60482788085938,0.0,0.0,0.0,0.0,-9.479695290792733e-05,-0.0003088955709245056,-9.051379311131313e-05,-0.0003146246890537441,-0.00010591113823466003,-0.00010643473797244951,0.0004999121883884072,0.0005005269194953144,-33.11549377441406,58.20433807373047,-136.70729064941406,192.96543884277344,281.9849853515625,-179.070556640625,-209.29685974121094,217.8579559326172,0.30518603324890137,-2.2714692022418603e-05,-0.0016448420938104391,0.0006145934457890689,-0.003722687717527151,-3.575535083655268e-05,0.0017159003764390945,0.0737650990486145,-0.013432787731289864,0.05582962930202484,-0.0,2397.380859375,2413.9208984375,2075.094482421875,2088.915771484375
1767759392.135412,9124707774134530792,744,31.916126251220703,32.26442337036133,53.370513916015625,53.310890197753906,-1.3473628759384155,-0.9459256529808044,0.28990206122398376,0.2682209014892578,86.08549499511719,86.702392578125,11.748072624206543,10.822712898254395,26.074186325073242,25.984373092651367,1.7910634279251099,1.806060552597046,4.852165699005127,4.82982063293457,-0.00670892558991909,-0.006877982523292303,-0.00618647038936615,-0.008852935396134853,-0.0008239291491918266,0.00018263842503074557,-73.14141845703125,127.37183380126953,3.5829966068267822,44.00176239013672,3378.558837890625,3444.7158203125,622.6502685546875,631.9634399414062,0.303422212600708,-0.02196861244738102,0.009452697820961475,1.9106028079986572,0.0005294631118886173,0.010487014427781105,0.00043730303877964616,0.009859319776296616,0.028729362413287163,0.03637330234050751,-0.0,2627.586181640625,2699.5048828125,1819.8958740234375,1791.901611328125
1767759393.174045,9124707774134530792,765,27.406726837158203,30.890962600708008,52.2279167175293,55.6960334777832,-79.76598358154297,-28.269922256469727,-8.570551872253418,31.3024959564209,795.127197265625,275.04052734375,301.72161865234375,-989.627685546875,8.24103832244873,8.517868041992188,8.147063255310059,8.512685775756836,0.01055037509649992,-0.004447002895176411,-0.0008899419335648417,0.0006465550395660102,-0.04024001210927963,-0.0453072190284729,-0.00030805147252976894,-0.006448704283684492,2143.56298828125,4600.64306640625,-28.43282127380371,830.9683837890625,-574.0399780273438,-471.55328369140625,71.34552001953125,-95.5466079711914,0.30191516876220703,0.0647541955113411,0.09068848937749863,8.305927276611328,-0.029356420040130615,0.20221813023090363,-0.011458558961749077,-2.510138750076294,-7.0954108238220215,3.1476547718048096,-0.06401029974222183,1356.033203125,3407.640380859375,1340.7879638671875,3446.63330078125
1767759394.1834655,9124707774134530792,785,25.119199752807617,36.37752914428711,53.79326629638672,52.87586212158203,37.72783660888672,41.882911682128906,-11.126025199890137,10.432451248168945,-283.1206359863281,-94.61493682861328,-92.89826965332031,820.9033813476562,10.94141960144043,9.075569152832031,7.645659923553467,8.719632148742676,0.41833925247192383,0.0662812739610672,-0.0021227188408374786,-0.0021879568230360746,-0.020622961223125458,-0.024971771985292435,-0.0010304782772436738,-0.0639110580086708,92.48774719238281,2519.768310546875,92.1760025024414,2856.34228515625,2704.033203125,5516.95947265625,-228.60568237304688,-124.78509521484375,0.3055152893066406,0.9806964993476868,-0.002817094326019287,7.873307704925537,0.037510525435209274,0.7012268900871277,-0.006130250170826912,-0.10088234394788742,1.1344419717788696,-0.6983562707901001,-0.30413997173309326,1649.8812255859375,4089.5546875,1958.337158203125,1634.8441162109375
1767759395.2244627,9124707774134530792,806,30.166099548339844,27.03782844543457,54.909114837646484,54.35794448852539,-52.88857650756836,-60.334835052490234,30.569133758544922,-11.786966323852539,936.071044921875,1721.5687255859375,-1647.372314453125,-35.70018768310547,15.393645286560059,15.3842134475708,15.459863662719727,15.450580596923828,-0.004352427553385496,-0.0045561594888567924,0.00028134757303632796,0.0001018433176795952,0.002111773006618023,-0.004687004256993532,-0.005623268894851208,-0.0024511832743883133,-326.6492004394531,611.8975219726562,339.3011169433594,347.92401123046875,-427.789794921875,-421.7728576660156,35.1708984375,12.361672401428223,0.3111093044281006,-0.033604297786951065,0.18105828762054443,15.460227012634277,0.09015733003616333,-0.008510285057127476,-0.03151693195104599,4.651698112487793,0.8223077058792114,-3.4415762424468994,-0.0,2267.5185546875,1923.723876953125,2828.048583984375,2692.840087890625
1767759396.2266626,9124707774134530792,826,29.747526168823242,27.652917861938477,54.76401138305664,53.139225006103516,84.50535583496094,-92.45718383789062,36.9936637878418,-42.729522705078125,1129.8028564453125,-1003.2887573242188,402.88043212890625,-480.7716064453125,14.10018253326416,13.883740425109863,14.178672790527344,13.920853614807129,-0.004902946297079325,-0.00233192159794271,-0.00013890245463699102,0.0005361224175430834,0.008554980158805847,0.0019986778497695923,0.020878640934824944,0.01735498197376728,-1256.1795654296875,-162.0468292236328,-2004.8785400390625,-1015.1573486328125,-583.2332153320312,-219.93698120117188,17.7755184173584,41.376068115234375,0.30730414390563965,-0.20575521886348724,0.10328634083271027,14.043899536132812,-0.0481942817568779,-0.1693795919418335,0.10876435786485672,1.4484245777130127,-2.245742082595825,-2.268022060394287,0.0572284460067749,2894.071044921875,2028.7669677734375,2922.85205078125,1492.0491943359375
1767759397.2290776,9124707774134530792,846,26.49004554748535,27.986408233642578,52.75724792480469,55.52200698852539,-236.00621032714844,136.53221130371094,-134.8681640625,102.8140869140625,-7583.35107421875,5144.8125,-9363.0439453125,6177.46484375,12.130277633666992,12.10678482055664,12.194217681884766,12.178110122680664,-0.005736242979764938,-0.0024444730952382088,0.0003977340820711106,0.000580203311983496,0.004322856664657593,-0.0021279894281178713,-0.002208476420491934,0.0009478633292019367,-468.98760986328125,324.9207458496094,0.0,58.990779876708984,-444.73663330078125,-231.26571655273438,0.0,58.37992477416992,0.3031027317047119,2.617191057652235e-06,0.1240437924861908,12.162172317504883,-0.05016196146607399,-0.001445920905098319,0.0658259466290474,-9.225775718688965,0.43167659640312195,8.033502578735352,-0.0,1473.12646484375,2159.079345703125,873.708251953125,3866.29833984375
1767759398.2359183,9124707774134530792,867,32.54656982421875,29.55410385131836,54.43746566772461,54.44394302368164,82.74263000488281,-37.21778869628906,79.7373046875,76.81046295166016,4860.13134765625,-4.870737075805664,1289.2216796875,10296.7822265625,24.642358779907227,24.791587829589844,12.333481788635254,12.435190200805664,1.014629602432251,1.030676245689392,-0.0016840966418385506,-0.0008118898840621114,-0.017283370718359947,-0.024207914248108864,-0.005840114317834377,-0.0030946643091738224,-31.155899047851562,144.3055877685547,188.41587829589844,385.6974792480469,2713.853759765625,2620.961181640625,250.41873168945312,-96.81507110595703,0.2929677963256836,-0.16430364549160004,0.08287320286035538,12.361069679260254,-0.02534276433289051,0.05803966522216797,-0.06875911355018616,4.428842067718506,0.2648458480834961,-1.7743515968322754,-0.0,2847.272216796875,2285.873046875,2341.665771484375,3017.88916015625
1767759399.2366507,9124707774134530792,887,29.95758056640625,30.747392654418945,51.63032913208008,53.741153717041016,166.812255859375,-53.43256759643555,-67.5958023071289,59.62519073486328,18925.611328125,-7478.78564453125,920.0072021484375,5188.232421875,13.419994354248047,14.305030822753906,12.207347869873047,12.161850929260254,0.08508593589067459,0.10515963286161423,-0.002822674810886383,-0.0022682081907987595,0.0031507713720202446,-0.0035773443523794413,-0.003351872321218252,-0.0007373400731012225,-174.74411010742188,0.0,117.38823699951172,0.0,2350.712646484375,0.0,-133.89813232421875,-0.0,0.30864882469177246,-0.017921019345521927,0.03913155198097229,12.186441421508789,-0.09467556327581406,-0.011011501774191856,0.03712030500173569,-8.55477523803711,-0.19090551137924194,1.8525301218032837,-0.0,3702.3095703125,2027.1181640625,689.1115112304688,2006.138427734375
1767759400.2786796,9124707774134530792,908,21.018823623657227,29.608379364013672,56.516883850097656,53.799095153808594,-67.55363464355469,-32.5736198425293,143.08628845214844,106.2689208984375,110.29451751708984,-4408.4150390625,10686.2099609375,8850.7470703125,12.403688430786133,12.219236373901367,12.411893844604492,12.40479564666748,-0.01032688096165657,-0.004544013179838657,3.579370604711585e-05,0.00015258279745467007,0.006975994445383549,0.0010447419481351972,7.416118023684248e-05,0.002735057147219777,-743.5938110351562,-0.0,-406.8732604980469,-95.93372344970703,-876.7874755859375,-0.0,-5.853385925292969,-11.529031753540039,0.3003883361816406,0.02707674354314804,0.032296836376190186,12.38516616821289,-0.005347625818103552,-0.009301608428359032,0.09422683715820312,-3.1107943058013916,0.06125190481543541,6.981123447418213,-0.0,1208.017578125,1199.0985107421875,5120.40185546875,3087.0205078125
1767759401.3277872,9124707774134530792,930,35.87538528442383,22.829591751098633,52.605369567871094,54.59660720825195,-65.22208404541016,-29.736236572265625,-5.375534534454346,3.1450343132019043,-1766.5821533203125,-10694.2138671875,1533.7039794921875,744.3026733398438,9.979190826416016,9.751800537109375,10.09948444366455,9.438163757324219,-0.004260671325027943,0.027936847880482674,-0.0004263055161572993,0.00025750641361810267,0.012645725160837173,0.006356594152748585,0.03598534315824509,0.01268016267567873,-1679.6058349609375,-0.0,-2158.952880859375,-1071.9349365234375,-533.0316772460938,0.0,-30.2213134765625,30.261539459228516,0.30594420433044434,-0.6113866567611694,0.09864844381809235,9.669011116027832,-0.03166109323501587,-0.41999003291130066,-0.00163577264174819,-0.7274311184883118,-1.4248450994491577,-0.7422930598258972,0.17747753858566284,3986.412109375,178.78042602539062,1538.036376953125,2347.824951171875
1767759402.3803976,9124707774134530792,951,30.260047912597656,26.013835906982422,53.68738555908203,53.845027923583984,6.031200885772705,-9.225560188293457,-9.576983451843262,13.167149543762207,211.18911743164062,-27.506547927856445,248.8656768798828,-229.37510681152344,9.029278755187988,8.729917526245117,9.094907760620117,8.728039741516113,-0.00231129489839077,0.003387260716408491,-0.00029208557680249214,0.00024873882648535073,0.008247489109635353,0.0019852060358971357,0.019174236804246902,0.008338253945112228,-1131.0447998046875,-140.9370880126953,-1720.98779296875,-602.614013671875,-261.35955810546875,265.7052917480469,-31.076820373535156,-27.053884506225586,0.3066720962524414,-0.340058833360672,0.03605972230434418,8.871549606323242,-0.019284645095467567,-0.23041459918022156,0.015903610736131668,-1.040038824081421,-1.400698184967041,0.06846468895673752,0.10519850254058838,2963.452880859375,1779.4423828125,2182.815673828125,2110.4248046875
1767759403.428569,9124707774134530792,973,31.545337677001953,29.867942810058594,52.619693756103516,53.44738006591797,18.528303146362305,66.03681945800781,4.438460350036621,4.799897193908691,-3703.818603515625,-3465.055908203125,2665.177734375,2795.916015625,0.44915467500686646,0.11100113391876221,0.0,-1.5597544589240897e-08,-0.5805274248123169,-0.6146678328514099,-0.7581607103347778,-0.7372092008590698,0.0021931577939540148,-0.00451032305136323,-0.0002953480579890311,0.0022898998577147722,-42.75302505493164,40.00360870361328,1.2132914066314697,-10.821990966796875,-2936.220947265625,-2369.619140625,-3064.728759765625,-3440.58837890625,0.299332857131958,-0.0013411170803010464,0.016305552795529366,7.792977809906006,0.02114582620561123,0.005703894887119532,-0.025119604542851448,0.10684658586978912,0.14274384081363678,-0.5819790959358215,-0.0,1922.310302734375,1491.994140625,2169.91455078125,2517.96240234375
1767759404.4329956,9124707774134530792,993,26.5306396484375,30.578346252441406,54.44267272949219,53.087955474853516,-1.3330192565917969,-0.27364739775657654,0.1909119039773941,0.7859346866607666,27.964170455932617,30.563068389892578,-13.24393081665039,-25.134286880493164,0.0,0.0,0.0,0.0,0.0018165137153118849,0.0019554065074771643,0.0018045385368168354,0.001957547152414918,0.0008193459361791611,0.0008313804282806814,0.00042606741772033274,0.0004206103039905429,-459.9329833984375,447.85516357421875,171.80746459960938,-103.52417755126953,-248.70346069335938,-100.08737182617188,158.62124633789062,-172.88453674316406,0.3014700412750244,0.001995802391320467,-0.0008306622039526701,-0.005114114377647638,0.0011446590069681406,-4.954950054525398e-05,0.0005069977487437427,3.30100956489332e-05,-0.0004415131115820259,-0.006275601219385862,-0.0,2030.38916015625,2857.583740234375,2467.83056640625,1719.29736328125
1767759405.4807944,9124707774134530792,1014,26.347238540649414,30.333105087280273,54.56382751464844,53.1779899597168,-0.06261103600263596,-0.2300567626953125,0.09210549294948578,-0.00869310274720192,1.5304012298583984,4.179787635803223,-0.8704656362533569,-0.056931283324956894,0.0,0.0,0.0,0.0,0.0006493162945844233,0.0007007148815318942,0.0006466855993494391,0.0007031197310425341,0.0003913324326276779,0.00039614029810763896,0.00013001477054785937,0.00012780175893567502,-454.7221984863281,448.1640319824219,169.17884826660156,-125.54935455322266,-226.05429077148438,-33.6386604309082,217.19468688964844,-173.86492919921875,0.30147266387939453,0.00034758009132929146,-0.0017365164821967483,-0.0005255253054201603,-0.0007319269934669137,0.000917030090931803,-0.0023627523332834244,-0.002978448523208499,-0.0004992421600036323,-0.002804612275213003,-0.0,2000.940185546875,2819.31103515625,2554.9208984375,1782.3841552734375
1767759406.487989,9124707774134530792,1034,26.18419075012207,30.170087814331055,54.51811218261719,53.13496017456055,1.184948205947876,0.9083725810050964,0.20993219316005707,-0.039586011320352554,95.66737365722656,64.48799896240234,14.321930885314941,-9.319296836853027,0.0,0.0,0.0,0.0,0.00029417031328193843,0.00029734676354564726,0.0002949943009298295,0.0003006992628797889,0.00044137664372101426,0.00044445774983614683,0.0003747869632206857,0.00037345298915170133,-463.0962219238281,415.9913024902344,135.62351989746094,-153.58840942382812,-206.88836669921875,2.5913398265838623,246.6679229736328,-160.58120727539062,0.3016500473022461,-0.00039014185313135386,0.000822368252556771,7.803441258147359e-05,0.008483598940074444,0.0003778667887672782,-0.0008932254277169704,0.5075725317001343,-0.05970527231693268,0.026592619717121124,-0.0,1984.9735107421875,2797.480224609375,2526.282470703125,1747.63525390625
1767759407.530575,9124707774134530792,1055,26.415611267089844,30.369768142700195,54.49246597290039,53.08529281616211,-0.023713091388344765,1.3784390687942505,-0.5726044774055481,1.192429780960083,14.987838745117188,88.43254852294922,-3.324638843536377,167.83071899414062,0.0,0.0,0.0,0.0,0.00016789493383839726,0.0003077088622376323,0.00016478860925417393,0.00031297162058763206,0.00045783771201968193,0.00045847592991776764,0.00020851605222560465,0.0002080984995700419,-474.3917541503906,399.50531005859375,145.074951171875,-145.34744262695312,-196.84999084472656,44.605010986328125,263.3281555175781,-134.0432891845703,0.3015146255493164,0.0012708972208201885,0.0022308274637907743,0.001728290575556457,0.005291580222547054,-0.00047819322207942605,0.0027980462182313204,0.21546369791030884,-0.01898931711912155,0.17044679820537567,-0.0,2023.0625,2841.91162109375,2502.777099609375,1724.90576171875
1767759408.581904,9124707774134530792,1077,26.548664093017578,30.48822784423828,54.52241897583008,53.10922622680664,1.6431159973144531,-0.5377116203308105,1.14524245262146,-0.05729292705655098,147.31593322753906,-26.005617141723633,57.58808898925781,-60.30308532714844,0.0,0.0,0.0,0.0,8.463708218187094e-05,5.574657188844867e-05,8.380204963032156e-05,5.562076694332063e-05,0.00014081955305300653,0.00014265149366110563,0.0003311466716695577,0.0003305167774669826,-466.2313232421875,404.5134582519531,128.21133422851562,-162.9017791748047,-214.89166259765625,42.59426498413086,253.8029327392578,-142.7101287841797,0.3013651371002197,-0.0013932980364188552,0.0008297499734908342,0.0007713548839092255,-0.006021869834512472,0.0013323163148015738,-0.0008283349452540278,-0.21698489785194397,-0.006846293341368437,-0.0325171984732151,-0.0,2062.40673828125,2857.30126953125,2532.74365234375,1731.848388671875
1767759409.5877163,9124707774134530792,1097,26.551563262939453,30.36592674255371,54.535953521728516,53.04627990722656,0.19034788012504578,-2.6869471073150635,-0.3141604959964752,-0.9337322115898132,-126.92716979980469,14.268381118774414,-121.76093292236328,112.2169189453125,0.0,0.0,0.0,0.0,4.5286618842510507e-05,-4.697946860687807e-05,4.7143694246187806e-05,-4.915108365821652e-05,-0.00012416487152222544,-0.00012417545076459646,0.00020291845430620015,0.00020296273578424007,-441.49371337890625,410.28814697265625,132.27149963378906,-156.3364715576172,-201.59315490722656,41.52391815185547,266.5259094238281,-143.1530303955078,0.30147743225097656,0.0021830257028341293,-0.0038540444802492857,-0.0003759354876819998,0.00214049662463367,0.0002769757993519306,-0.0010635624639689922,0.34226247668266296,-0.08300821483135223,-0.006864693947136402,-0.0,2030.4404296875,2816.38134765625,2521.302490234375,1689.1219482421875
1767759410.632651,9124707774134530792,1118,26.56566619873047,30.42741584777832,54.52873229980469,53.07592010498047,-1.011734127998352,1.7920112609863281,-0.36703357100486755,1.9391911029815674,-108.7653579711914,264.3740234375,-39.46201705932617,181.25094604492188,0.0,0.0,0.0,0.0,8.951075869845226e-05,7.701327558606863e-05,8.744886872591451e-05,7.588630978716537e-05,0.00025521416682749987,0.0002537623804528266,8.497131057083607e-05,8.545050513930619e-05,-467.5642395019531,364.1756896972656,139.51898193359375,-151.58975219726562,-199.75137329101562,53.498653411865234,268.1827697753906,-134.9066925048828,0.3014051914215088,-0.0003247474378440529,-0.0005171412485651672,-0.0007363476324826479,0.004801845643669367,-0.001912868581712246,0.001572179957292974,0.130979523062706,-0.12112061679363251,0.1346958875656128,-0.0,2042.460693359375,2850.179443359375,2531.47509765625,1726.03515625
1767759411.679403,9124707774134530792,1139,26.544326782226562,30.48690414428711,54.49822998046875,53.075496673583984,-1.4068249464035034,2.5331406593322754,-1.3003528118133545,-0.041792791336774826,-28.56939697265625,27.70034408569336,-51.89467239379883,-118.11412811279297,0.0,0.0,0.0,0.0,5.731657438445836e-05,0.0002369042776990682,5.5780728871468455e-05,0.00024297933850903064,2.9241387892398052e-05,2.8184424081700854e-05,-0.0005941221606917679,-0.0005939143011346459,-452.8466796875,375.4647216796875,175.53604125976562,-111.40037536621094,-203.78216552734375,67.68949890136719,254.87599182128906,-118.6781005859375,0.30141472816467285,0.0015146008227020502,-8.032985351746902e-05,-0.0010588415898382664,0.004223252646625042,-0.0001329151273239404,5.0274600653210655e-05,0.005254298914223909,0.1034107580780983,-0.0902475044131279,-0.0,2044.839599609375,2854.84619140625,2490.745361328125,1713.239501953125
1767759412.7257488,9124707774134530792,1160,26.522480010986328,30.493816375732422,54.473236083984375,53.084712982177734,-1.8638890981674194,0.43336793780326843,-1.4242138862609863,0.9479160904884338,-44.431034088134766,-102.50091552734375,-19.362537384033203,72.90022277832031,0.0,0.0,0.0,0.0,0.00013458998000714928,0.00018895846733357757,0.00013336677511688322,0.00019058393081650138,7.947851554490626e-05,7.895866292528808e-05,0.00013398454757407308,0.00013406532525550574,-453.6407165527344,368.0525207519531,134.1816864013672,-152.74034118652344,-198.33045959472656,65.97832489013672,264.2882080078125,-123.9453353881836,0.3014392852783203,0.0025218327064067125,-0.004888197407126427,-0.00023513130145147443,0.001679680310189724,0.00048206408973783255,-0.0010266663739457726,-0.13249388337135315,0.027956223115324974,-0.05810267850756645,-0.0,2026.587646484375,2847.75048828125,2484.5693359375,1717.533203125
1767759419.1857607,9124707774134530792,1172,26.557079315185547,30.374332427978516,54.57884216308594,53.08501052856445,1.0856493711471558,0.502984344959259,0.8207534551620483,-0.7804892659187317,25.13180923461914,92.11641693115234,-9.54278564453125,-10.099591255187988,0.0,0.0,0.0,0.0,5.062517175247194e-06,-4.671791975852102e-05,4.898974111711141e-06,-4.7894674935378134e-05,0.0002298668841831386,0.00023098743986338377,3.497116995276883e-05,3.45174121321179e-05,-467.1247863769531,360.1474304199219,145.05384826660156,-148.5194091796875,-206.4689483642578,57.78819274902344,266.2770080566406,-132.91213989257812,0.30138206481933594,-0.0010948923882097006,0.003037038492038846,0.0003690380253829062,0.00956958718597889,0.0004313632380217314,-0.0015015261014923453,0.5699107646942139,-0.12992265820503235,0.14856933057308197,-0.0,2062.57470703125,2828.85791015625,2563.18115234375,1720.7713623046875
1767759420.1977665,9124707774134530792,1192,26.48059844970703,30.33829116821289,54.495906829833984,53.022544860839844,1.9257142543792725,0.5083903670310974,0.991523265838623,-0.769123375415802,118.98278045654297,127.37809753417969,24.046005249023438,-55.07915496826172,0.0,0.0,0.0,0.0,-1.2995836186746601e-05,8.322144276462495e-05,-1.4785179700993467e-05,8.612229430582374e-05,0.0002453876077197492,0.0002479261311236769,-0.0001582567929290235,-0.00015931387315504253,-462.10205078125,358.2677917480469,166.80690002441406,-125.66383361816406,-205.903564453125,62.03877258300781,257.9447021484375,-125.87215423583984,0.3015267848968506,-0.002289546187967062,0.004324739798903465,-0.00014860848023090512,-0.0011622416786849499,-0.0006878713029436767,0.0013861568877473474,0.24506087601184845,0.0350327230989933,0.04730378836393356,-0.0,2049.369140625,2824.122802734375,2503.43798828125,1678.6864013671875
1767759421.199286,9124707774134530792,1212,26.432506561279297,30.382694244384766,54.47559356689453,53.06707763671875,0.22530554234981537,-1.5306471586227417,-0.2785027027130127,-2.2593138217926025,-15.415995597839355,-184.06655883789062,-49.19171142578125,-226.5929718017578,0.0,0.0,0.0,0.0,3.7097586755407974e-05,4.8107216571224853e-05,3.904259210685268e-05,4.9024489271687344e-05,-0.00022852788970340043,-0.0002265341317979619,-0.00041624088771641254,-0.0004170033789705485,-416.86651611328125,399.9741516113281,178.96400451660156,-110.33035278320312,-200.03466796875,59.30362319946289,253.50694274902344,-126.85296630859375,0.30153393745422363,0.00032054740586318076,-0.0026205985341221094,-0.000282287917798385,0.0023961057886481285,0.0002850433811545372,1.5575276847812347e-05,0.3096533715724945,0.03906731680035591,-0.04113620147109032,-0.0,2017.423828125,2814.197998046875,2477.332763671875,1688.27001953125
1767759422.2489796,9124707774134530792,1233,26.47995948791504,30.362730026245117,54.47681427001953,53.02511978149414,2.9943509101867676,-0.3433227241039276,1.121163249015808,-1.749023675918579,242.4515380859375,144.8660888671875,-4.211068153381348,-176.0601806640625,0.0,0.0,0.0,0.0,5.545165186049417e-05,4.285398517822614e-06,5.779849016107619e-05,4.515961336437613e-06,8.15987223177217e-05,8.498460374539718e-05,-9.819953447731677e-06,-1.1123743206553627e-05,-453.2161865234375,376.0893249511719,156.75830078125,-133.7764892578125,-204.89561462402344,56.0244140625,261.170166015625,-131.2134552001953,0.3015260696411133,-0.002582165179774165,0.0029075108468532562,-0.000603480904828757,0.0036994600668549538,-0.0013257116079330444,0.00015768763842061162,0.6039544939994812,-0.08999980241060257,-0.09628672897815704,-0.0,2056.27783203125,2831.540771484375,2491.51123046875,1668.0853271484375
1767759423.2862003,9124707774134530792,1254,26.39954948425293,30.32392120361328,54.486244201660156,53.05722427368164,0.7811933159828186,1.9145383834838867,-0.37372109293937683,-0.8189677596092224,40.293479919433594,205.44378662109375,-52.91998291015625,-77.43536376953125,0.0,0.0,0.0,0.0,7.491081487387419e-05,0.00020693900296464562,7.512798038078472e-05,0.00021338033548090607,0.00041568142478354275,0.00041712800157256424,-0.0002606063790153712,-0.0002613175893202424,-463.0523986816406,347.1037902832031,172.3367462158203,-119.09705352783203,-197.53598022460938,70.93408203125,262.15277099609375,-117.85472106933594,0.3015460968017578,-0.0009919432923197746,0.0023698322474956512,-3.446312985033728e-05,0.009576231241226196,8.256887667812407e-05,-0.0012722087558358908,0.6140897870063782,0.10319101065397263,-0.1681487113237381,-0.0,2027.930419921875,2829.56103515625,2486.86572265625,1696.3109130859375
1767759424.294152,9124707774134530792,1274,26.463367462158203,30.392305374145508,54.44814682006836,53.034332275390625,1.2210755348205566,-0.6387009620666504,-0.42490658164024353,-1.2483446598052979,47.03252410888672,-64.92285919189453,-57.68090057373047,-145.0001983642578,0.0,0.0,0.0,0.0,4.4449730921769515e-05,6.81974706822075e-05,4.736199480248615e-05,7.060899952193722e-05,-0.0003605429665185511,-0.0003601450298447162,-0.00036143630859442055,-0.0003615934692788869,-404.0657653808594,416.0268249511719,174.55352783203125,-112.87836456298828,-204.67141723632812,60.09111022949219,245.66307067871094,-125.98368072509766,0.3015410900115967,-0.0006147412350401282,0.0010700420243665576,-0.0001585210266057402,0.0040137264877557755,0.0008391470182687044,0.00043218498467467725,0.33068546652793884,0.030925923958420753,-0.0900733694434166,-0.0,2029.899169921875,2835.14208984375,2458.68310546875,1669.8074951171875
1767759425.3491523,9124707774134530792,1295,26.43199348449707,30.344337463378906,54.497554779052734,53.06694412231445,1.446604609489441,1.0243803262710571,1.6102193593978882,0.5963444113731384,77.40853881835938,242.3979034423828,1.8373130559921265,36.209815979003906,0.0,0.0,0.0,0.0,-3.5891443985747173e-05,-8.748471373110078e-06,-3.913260661647655e-05,-1.0144935004063882e-05,0.00019235664512962103,0.0001932890882017091,-0.00018487253692001104,-0.00018525384075473994,-452.1634216308594,371.5491943359375,170.89610290527344,-125.48198699951172,-207.23318481445312,56.677120208740234,254.61669921875,-134.4285430908203,0.3014945983886719,-0.00177572516258806,0.003477875143289566,0.00018234176968690008,-0.001575574278831482,-0.00023485426208935678,0.0011778412153944373,0.02375010773539543,0.020287038758397102,0.10912176221609116,-0.0,2033.95703125,2833.99267578125,2514.795654296875,1719.423095703125
1767759426.3879309,9124707774134530792,1316,26.423994064331055,30.434106826782227,54.46860122680664,53.09749984741211,0.47709789872169495,1.2220814228057861,0.22552905976772308,-0.5511939525604248,168.59022521972656,9.381021499633789,31.945104598999023,-140.53433227539062,0.0,0.0,0.0,0.0,8.136339602060616e-05,0.00020336672605481,7.882588397478685e-05,0.00020681646128650755,0.0002800521906465292,0.0002825314295478165,-0.0001323951582890004,-0.0001334205298917368,-461.7754821777344,356.01116943359375,162.3948516845703,-130.25112915039062,-199.55540466308594,71.74642181396484,262.0788879394531,-120.00691223144531,0.3014671802520752,-0.0008516284287907183,0.000763022864703089,0.0010423045605421066,0.00028471945552155375,0.001382100279442966,-0.0019533238373696804,0.007932855747640133,0.1655850112438202,-0.16296076774597168,-0.0,2033.852294921875,2841.614990234375,2487.826904296875,1722.477294921875
1767759427.3963702,9124707774134530792,1336,26.347389221191406,30.309707641601562,54.42795181274414,53.037086486816406,1.8037854433059692,-0.25738030672073364,1.2530385255813599,-0.2226233333349228,252.93899536132812,-5.632639408111572,163.1051025390625,-80.0237045288086,0.0,0.0,0.0,0.0,6.57445561955683e-05,-1.686117502686102e-05,6.725508865201846e-05,-1.821346268116031e-05,8.230539242504165e-05,8.492565393680707e-05,0.0006224875687621534,0.0006216350011527538,-446.9605712890625,372.3731689453125,116.43569946289062,-162.49520874023438,-201.11102294921875,57.208534240722656,253.33755493164062,-128.7960205078125,0.30161595344543457,-0.0018724050605669618,0.0017551456112414598,0.00023275332932826132,-0.0026000733487308025,-0.00019097703625448048,0.0017955465009436011,0.02864382602274418,-0.08774106949567795,0.08956696093082428,-0.0,2023.63916015625,2818.892333984375,2469.06005859375,1679.4541015625
1767759428.3965626,9124707774134530792,1356,26.375141143798828,30.351408004760742,54.44145584106445,53.046939849853516,1.8841400146484375,2.3831424713134766,-0.5295127630233765,-1.6053019762039185,146.052978515625,203.2644805908203,-105.11576080322266,-209.10499572753906,0.0,0.0,0.0,0.0,5.302911449689418e-05,0.00017995953385252506,5.463989145937376e-05,0.0001874822046374902,0.00040479161543771625,0.00040697961230762303,-0.00013996113557368517,-0.0001409036194672808,-467.3486328125,345.91217041015625,166.40757751464844,-123.40413665771484,-199.8976593017578,72.28683471679688,258.17047119140625,-117.22344207763672,0.30156707763671875,-0.0008478622185066342,0.002054118551313877,0.0002948936016764492,0.009164191782474518,-4.4901680666953325e-05,-0.0009072654647752643,0.592449426651001,0.09403512626886368,-0.2628948986530304,-0.0,2035.2210693359375,2839.4990234375,2454.45751953125,1678.3134765625
1767759429.4415987,9124707774134530792,1377,26.36046028137207,30.2719783782959,54.47525405883789,53.04869079589844,0.9495019316673279,-0.19066034257411957,-0.3522634208202362,-1.6133486032485962,-3.004077434539795,-149.45266723632812,-85.26741790771484,-198.92599487304688,0.0,0.0,0.0,0.0,1.7724514691508375e-05,9.63992079050513e-06,2.0943993149558082e-05,1.1705218639690429e-05,-0.00011191517842235044,-0.00011084818106610328,-0.0002424136473564431,-0.0002428461011731997,-420.643310546875,399.3814697265625,174.22842407226562,-117.0537338256836,-200.81356811523438,57.625885009765625,255.42124938964844,-129.69374084472656,0.3015921115875244,0.00019158879877068102,-0.000856654136441648,-0.00011074021313106641,-0.000752494262997061,0.001111760619096458,-0.003590910928323865,0.09912354499101639,0.084437794983387,-0.2775310277938843,-0.0,2011.4017333984375,2804.127685546875,2477.3720703125,1680.718994140625
1767759430.446751,9124707774134530792,1397,26.459150314331055,30.37575912475586,54.45765686035156,53.05309295654297,-0.5447119474411011,0.7248669266700745,0.8855759501457214,2.5711207389831543,-134.7608642578125,218.2714385986328,24.837251663208008,261.086181640625,0.0,0.0,0.0,0.0,0.00010533680324442685,3.349041799083352e-05,0.00010309281788067892,2.8832828320446424e-05,8.258965681307018e-05,8.130877540679649e-05,0.00023448104911949486,0.00023493272601626813,-439.2789001464844,383.23406982421875,147.13560485839844,-145.97073364257812,-197.36248779296875,60.57522201538086,264.6817932128906,-132.01446533203125,0.30150318145751953,0.0004981478559784591,4.496208202908747e-05,-4.123329927097075e-05,-0.0027712653391063213,-0.0012442227452993393,0.002766015473753214,-0.29859867691993713,-0.13631536066532135,0.2599911391735077,-0.0,2015.8392333984375,2844.474365234375,2490.7451171875,1715.102294921875
1767759431.497791,9124707774134530792,1418,26.432281494140625,30.367712020874023,54.438846588134766,53.01887893676758,1.193247675895691,2.238638401031494,-0.874176561832428,-1.5963612794876099,169.4485321044922,75.12865447998047,-41.051204681396484,-234.10316467285156,0.0,0.0,0.0,0.0,-5.574143870035186e-06,0.00018106360221281648,-4.541037014860194e-06,0.00019038419122807682,0.00023752851120661944,0.00023853452876210213,-0.0003797519311774522,-0.0003802358405664563,-461.65191650390625,363.3945007324219,178.55360412597656,-109.47157287597656,-206.1418914794922,73.28175354003906,250.1957550048828,-115.21659088134766,0.3015568256378174,-0.0004862772475462407,0.002714357804507017,0.0007889004191383719,0.0062897298485040665,0.0008483197307214141,-0.0014762780629098415,0.40833574533462524,0.1729782521724701,-0.3134661614894867,-0.0,2044.0008544921875,2837.869873046875,2447.18505859375,1658.57666015625
1767759432.50063,9124707774134530792,1438,26.375844955444336,30.40308380126953,54.43025588989258,53.0734748840332,0.13634562492370605,1.147091269493103,-0.009387730620801449,-0.3160535991191864,130.7174530029297,-84.3487548828125,85.11988830566406,-88.49947357177734,0.0,0.0,0.0,0.0,9.331430192105472e-05,0.00021449464838951826,9.218664490617812e-05,0.00021934800315648317,0.0002502963470760733,0.00025219342205673456,-0.00011772177094826475,-0.00011851917952299118,-456.2186279296875,359.6914978027344,163.77676391601562,-127.56044006347656,-197.35159301757812,75.02884674072266,260.8815002441406,-117.03324890136719,0.30153346061706543,-0.0010606199502944946,0.0009989353129640222,0.001113662263378501,-0.0018562572076916695,0.0012500541051849723,-0.0013385904021561146,-0.19995355606079102,0.1494770348072052,-0.13341228663921356,-0.0,2020.1494140625,2834.55859375,2460.325927734375,1704.8271484375
1767759433.5365527,9124707774134530792,1459,26.432804107666016,30.3466796875,54.465858459472656,53.04865646362305,0.45664605498313904,-0.8521600961685181,-0.5661695599555969,-0.9662657380104065,-4.103781223297119,-43.79376220703125,-78.3875503540039,-88.28489685058594,0.0,0.0,0.0,0.0,4.2751496948767453e-05,3.0010473892616574e-06,4.62225143564865e-05,3.5094797112833476e-06,-0.00033383816480636597,-0.00033440839615650475,-0.00016594633052591234,-0.00016569538274779916,-407.0417175292969,408.9919128417969,163.45872497558594,-125.11123657226562,-202.96253967285156,58.203041076660156,249.4147186279297,-130.03126525878906,0.30153536796569824,0.002184901852160692,-0.0011191831436008215,-0.0008289459510706365,0.0025591689627617598,-0.0007096995250321925,-0.0009080543532036245,0.19771192967891693,-0.08618383854627609,-0.11769276857376099,-0.0,2017.5869140625,2823.447265625,2470.30029296875,1681.894287109375
1767759434.5446053,9124707774134530792,1479,26.45186424255371,30.461774826049805,54.448123931884766,53.08500671386719,-0.3546103537082672,1.2072174549102783,-0.4693865478038788,0.4745274484157562,84.74439239501953,-85.85750579833984,40.60863494873047,-21.994110107421875,0.0,0.0,0.0,0.0,9.556888835504651e-05,0.00020938100351486355,9.391144703840837e-05,0.0002132326044375077,9.271484304917976e-05,9.337443771073595e-05,-5.8976642321795225e-05,-5.93444419791922e-05,-449.3101501464844,373.46160888671875,155.77590942382812,-135.05352783203125,-197.5950927734375,75.69603729248047,262.2693786621094,-117.83970642089844,0.3014504909515381,-0.002287705894559622,0.0030872144270688295,-0.0005270427209325135,0.005721909925341606,-0.001232397509738803,0.0009999483590945601,0.16456972062587738,-0.02247961238026619,0.019093167036771774,-0.0,2030.050048828125,2848.5419921875,2472.241943359375,1717.4305419921875
1767759435.548712,9124707774134530792,1499,26.418521881103516,30.34872817993164,54.447330474853516,53.04044723510742,-0.059679146856069565,-1.1577084064483643,-0.44770535826683044,-1.3817845582962036,-40.608638763427734,-76.24848937988281,-82.42427062988281,-164.1511688232422,0.0,0.0,0.0,0.0,-4.1448735998983466e-08,1.8500139049137942e-05,9.91916408565885e-07,1.863020588643849e-05,-0.0002668499364517629,-0.0002667268563527614,-0.0004048572154715657,-0.00040489653474651277,-411.5565490722656,403.77911376953125,175.14451599121094,-111.20923614501953,-199.4928436279297,60.1197624206543,248.84625244140625,-126.62191772460938,0.3015592098236084,0.0018364733550697565,-0.0035526235587894917,-0.00021906662732362747,0.003210713155567646,0.00010709593334468082,-0.00023127123131416738,0.2740341126918793,0.00657189404591918,-0.06936849653720856,-0.0,2009.354248046875,2816.98681640625,2457.626708984375,1675.0355224609375
1767759436.6004508,9124707774134530792,1520,26.40080451965332,30.3516845703125,54.45238494873047,53.06501007080078,0.05453824624419212,1.5003606081008911,0.13925135135650635,1.7181782722473145,8.455662727355957,179.92257690429688,17.56846809387207,206.2350311279297,0.0,0.0,0.0,0.0,5.8426670875633135e-05,4.705248647951521e-05,5.7740078773349524e-05,4.633268326870166e-05,0.00011804033420048654,0.00011719815665856004,0.00019285039161331952,0.00019310519564896822,-444.6160583496094,375.38177490234375,145.2056427001953,-145.24203491210938,-198.6995086669922,63.53103256225586,259.4845886230469,-128.85498046875,0.30151939392089844,-0.0012085018679499626,0.0037183284293860197,0.00025248483871109784,-0.0026811682619154453,-0.0003124446957372129,0.0004918866907246411,-0.3134368062019348,-0.037236105650663376,0.04824839532375336,-0.0,2015.9510498046875,2840.646240234375,2481.58935546875,1715.4647216796875
1767759437.6379104,9124707774134530792,1541,26.39923095703125,30.326204299926758,54.449703216552734,53.03651809692383,-0.07119029015302658,-1.4942138195037842,-0.15400348603725433,-1.7273424863815308,-8.194148063659668,-179.0977783203125,-18.19878578186035,-207.02627563476562,0.0,0.0,0.0,0.0,8.938442078942899e-06,4.087116030859761e-05,9.324945494881831e-06,4.183897908660583e-05,-0.00014230137458071113,-0.00014092086348682642,-0.0002717803872656077,-0.00027228399994783103,-422.4787902832031,392.82452392578125,170.50503540039062,-117.41285705566406,-201.1061553955078,62.21158981323242,251.2370147705078,-125.22842407226562,0.3015744686126709,0.001001533935777843,-0.0038012757431715727,-0.00026844217791222036,0.0025248341262340546,0.00031812197994440794,-0.00032200798159465194,0.31169310212135315,0.038246266543865204,-0.0490863211452961,-0.0,2010.099365234375,2802.646484375,2462.5537109375,1670.078125
1767759438.6996834,9124707774134530792,1562,26.400775909423828,30.35089683532715,54.45217514038086,53.0654296875,0.07130204886198044,1.4929845333099365,0.1533329337835312,1.7282365560531616,8.556245803833008,179.07766723632812,18.37312889099121,207.34812927246094,0.0,0.0,0.0,0.0,5.7462413678877056e-05,4.667498069466092e-05,5.676819273503497e-05,4.596394865075126e-05,0.00011599849676713347,0.00011516068479977548,0.00018988511874340475,0.0001901385694509372,-444.16131591796875,375.4569091796875,145.2318115234375,-145.222412109375,-198.50845336914062,63.224853515625,260.39794921875,-129.00204467773438,0.3015155792236328,-0.0011995678069069982,0.0037255464121699333,0.0002529988414607942,-0.002670017071068287,-0.0003161590138915926,0.0004942289087921381,-0.31192144751548767,-0.03804045543074608,0.04893694818019867,-0.0,2016.06689453125,2840.53515625,2481.60107421875,1715.799560546875
1767759439.749379,9124707774134530792,1583,26.399890899658203,30.325702667236328,54.44948196411133,53.03683090209961,-0.06817281246185303,-1.490302324295044,-0.1535564512014389,-1.721754550933838,-8.207559585571289,-178.90333557128906,-18.534061431884766,-206.7982940673828,0.0,0.0,0.0,0.0,9.096966095967218e-06,4.0603812522022054e-05,9.49470359046245e-06,4.1554721974534914e-05,-0.00014376516628544778,-0.00014238689618650824,-0.0002722892677411437,-0.0002727919491007924,-422.149658203125,392.7154235839844,170.44285583496094,-117.34232330322266,-201.0121612548828,62.154396057128906,251.08094787597656,-125.20048522949219,0.30157017707824707,0.000998200266622007,-0.0037986095994710922,-0.00026782130589708686,0.0025282055139541626,0.0003191479481756687,-0.00032203271985054016,0.3117309808731079,0.03803234547376633,-0.04894683510065079,-0.0,2010.187255859375,2802.569091796875,2462.46044921875,1670.307861328125
1767759440.7953577,9124707774134530792,1604,26.401403427124023,30.35040283203125,54.451942443847656,53.0656852722168,0.06884336471557617,1.491978645324707,0.15132127702236176,1.727118968963623,8.100271224975586,179.05084228515625,18.078086853027344,207.160400390625,0.0,0.0,0.0,0.0,5.749738556914963e-05,4.6580753405578434e-05,5.6809720263117924e-05,4.586418435792439e-05,0.00011560356506379321,0.00011476407235022634,0.00018946663476526737,0.0001897206821013242,-443.9228515625,375.2655029296875,145.18313598632812,-145.14764404296875,-198.4128875732422,63.18014144897461,260.2691650390625,-128.9620819091797,0.3015100955963135,-0.0011986822355538607,0.0037284784484654665,0.0002527729084249586,-0.0026677357964217663,-0.0003176183090545237,0.000495849410071969,-0.3120099604129791,-0.038197942078113556,0.049057576805353165,-0.0,2016.0980224609375,2840.3857421875,2481.464599609375,1715.94189453125
1767759441.8425248,9124707774134530792,1625,26.400447845458984,30.325267791748047,54.44922637939453,53.037010192871094,-0.06906688213348389,-1.490972876548767,-0.1535564512014389,-1.7266719341278076,-8.167325973510742,-179.2654266357422,-18.22560691833496,-207.14697265625,0.0,0.0,0.0,0.0,9.15395503398031e-06,4.075758624821901e-05,9.554460120853037e-06,4.171431282884441e-05,-0.00014355593884829432,-0.00014217247371561825,-0.00027240635245107114,-0.0002729110128711909,-421.9703063964844,392.46759033203125,170.3637237548828,-117.282958984375,-200.92288208007812,62.129703521728516,250.94651794433594,-125.13428497314453,0.30156612396240234,0.0009902213932946324,-0.003797791199758649,-0.0002671701367944479,0.0025218999944627285,0.00032266549533233047,-0.00032529296004213393,0.31144264340400696,0.03835810720920563,-0.049245886504650116,-0.0,2010.29052734375,2802.4091796875,2462.311279296875,1670.36376953125
1767759442.9012923,9124707774134530792,1646,26.401859283447266,30.349693298339844,54.4516716003418,53.06586837768555,0.07320194691419601,1.4839320182800293,0.15467403829097748,1.7251073122024536,8.697061538696289,178.29983520507812,18.534061431884766,207.12014770507812,0.0,0.0,0.0,0.0,5.770250572822988e-05,4.6354765800060704e-05,5.7025597925530747e-05,4.561948298942298e-05,0.00011350838030921295,0.0001126737697632052,0.00018897719564847648,0.00018922958406619728,-443.5814514160156,375.2630920410156,145.1444854736328,-145.07015991210938,-198.3191375732422,63.132144927978516,260.16455078125,-128.93296813964844,0.30150628089904785,-0.001208210946060717,0.003727136179804802,0.0002547482727095485,-0.002663237974047661,-0.00031175516778603196,0.0004922333173453808,-0.31116753816604614,-0.038112521171569824,0.04906550794839859,-0.0,2016.195556640625,2840.17578125,2481.337890625,1716.03759765625
1767759443.9350095,9124707774134530792,1667,26.402170181274414,30.349454879760742,54.451595306396484,53.066009521484375,0.07286667078733444,1.484155535697937,0.1566856950521469,1.7228721380233765,8.489191055297852,178.36016845703125,18.54747200012207,206.8251190185547,0.0,0.0,0.0,0.0,5.77757200517226e-05,4.629493923857808e-05,5.710528785130009e-05,4.5556302211480215e-05,0.00011311495472909883,0.00011228166113141924,0.0001884770463220775,0.00018872893997468054,-443.45196533203125,375.2034606933594,145.14529418945312,-145.01597595214844,-198.27003479003906,63.11201858520508,260.1166687011719,-128.9129180908203,0.30150508880615234,-0.001210281508974731,0.003730079159140587,0.00025469358661212027,-0.0026615378446877003,-0.0003118411696050316,0.0004929394344799221,-0.31090542674064636,-0.03817632421851158,0.04916030913591385,-0.0,2016.2216796875,2840.12939453125,2481.32421875,1716.115234375
1767759444.9490013,9124707774134530792,1687,26.401281356811523,30.324451446533203,54.448883056640625,53.037322998046875,-0.07074325531721115,-1.4910845756530762,-0.15422700345516205,-1.7264484167099,-8.455662727355957,-178.84967041015625,-18.440183639526367,-206.9994659423828,0.0,0.0,0.0,0.0,9.262604180548806e-06,4.057105979882181e-05,9.673057320469525e-06,4.1514504118822515e-05,-0.00014477365766651928,-0.00014339415065478534,-0.00027306939591653645,-0.00027357248472981155,-421.5634765625,392.23095703125,170.2681884765625,-117.17469024658203,-200.780029296875,62.06174087524414,250.7302703857422,-125.06983947753906,0.3015601634979248,0.0009899308206513524,-0.0037967204116284847,-0.0002667258377186954,0.00252808490768075,0.00032262172317132354,-0.0003240719670429826,0.3116219639778137,0.03816874325275421,-0.04907606914639473,-0.0,2010.3612060546875,2802.213623046875,2462.09814453125,1670.5595703125
1767759445.993559,9124707774134530792,1708,26.402631759643555,30.348918914794922,54.45130920410156,53.06618881225586,0.06940215826034546,1.4861671924591064,0.1533329337835312,1.7237662076950073,8.281319618225098,178.68873596191406,18.3463077545166,206.9994659423828,0.0,0.0,0.0,0.0,5.781014988315292e-05,4.618986713467166e-05,5.714417056879029e-05,4.544385228655301e-05,0.00011263819760642946,0.0001118011205107905,0.00018844542501028627,0.0001886987593024969,-443.2231750488281,375.0457763671875,145.06781005859375,-144.9653778076172,-198.181640625,63.070674896240234,259.9803466796875,-128.87669372558594,0.3015012741088867,-0.001209405716508627,0.0037271922919899225,0.0002550698700360954,-0.0026597408577799797,-0.0003111106052529067,0.0004927560803480446,-0.311087429523468,-0.038207631558179855,0.049133412539958954,-0.0,2016.2611083984375,2840.00048828125,2481.11669921875,1716.2108154296875
1767759447.0368927,9124707774134530792,1729,26.40179443359375,30.323917388916016,54.44865417480469,53.03759002685547,-0.06705522537231445,-1.4868377447128296,-0.15132127702236176,-1.7253308296203613,-8.288025856018066,-178.79603576660156,-18.22560691833496,-207.0531005859375,0.0,0.0,0.0,0.0,9.553142263030168e-06,4.0276012441609055e-05,9.978840353142004e-06,4.119954610359855e-05,-0.0001462609798181802,-0.00014488273882307112,-0.0002727857499849051,-0.0002732882567215711,-421.24041748046875,392.1270446777344,170.27166748046875,-117.15367889404297,-200.6976776123047,62.00285720825195,250.57569885253906,-125.05084228515625,0.3015556335449219,0.000985582242719829,-0.003797824028879404,-0.0002657407021615654,0.00253028841689229,0.00032510029268451035,-0.00032544374698773026,0.3116014301776886,0.03807809576392174,-0.049077752977609634,-0.0,2010.464111328125,2802.112060546875,2461.99755859375,1670.7176513671875
1767759448.0466232,9124707774134530792,1749,26.402042388916016,30.323617935180664,54.44853973388672,53.037742614746094,-0.070072703063488,-1.4879553318023682,-0.1535564512014389,-1.7190723419189453,-8.47577953338623,-178.3065185546875,-18.601116180419922,-206.4093780517578,0.0,0.0,0.0,0.0,9.430502359464299e-06,4.010337215731852e-05,9.855592907115351e-06,4.102036837139167e-05,-0.00014600444410461932,-0.00014463219849858433,-0.00027333589969202876,-0.00027383622364141047,-421.167724609375,392.0192565917969,170.1569366455078,-117.10584259033203,-200.64651489257812,61.97627639770508,250.52296447753906,-125.04268646240234,0.30155372619628906,0.000988441868685186,-0.0037976501043885946,-0.0002664743224158883,0.002531954552978277,0.0003230252768844366,-0.0003224933461751789,0.3113413155078888,0.03786863759160042,-0.04883699491620064,-0.0,2010.452880859375,2802.05859375,2461.94384765625,1670.865234375
1767759449.0918267,9124707774134530792,1770,26.403484344482422,30.348276138305664,54.450904846191406,53.06655502319336,0.06783753633499146,1.495107889175415,0.14841555058956146,1.7253308296203613,8.475780487060547,179.0441436767578,18.118318557739258,206.8519287109375,0.0,0.0,0.0,0.0,5.793779200757854e-05,4.646802699426189e-05,5.727372627006844e-05,4.5732478611171246e-05,0.0001144751367974095,0.00011364208330633119,0.00018929922953248024,0.00018955055566038936,-443.06781005859375,374.5467529296875,144.88925170898438,-144.9150848388672,-198.20401000976562,63.03547668457031,259.7724304199219,-128.77093505859375,0.3014953136444092,-0.00121787388343364,0.0037264691200107336,0.000253686448559165,-0.0026706145144999027,-0.00030935672111809254,0.0004920956562273204,-0.31254687905311584,-0.037796471267938614,0.04876953735947609,-0.0,2016.448974609375,2839.82275390625,2480.88134765625,1716.405029296875
1767759450.1359754,9124707774134530792,1791,26.403793334960938,30.34796714782715,54.450870513916016,53.06664276123047,0.07186084240674973,1.4877318143844604,0.15579162538051605,1.7237662076950073,8.83787727355957,178.40040588378906,18.708404541015625,206.8519287109375,0.0,0.0,0.0,0.0,5.816313932882622e-05,4.625677684089169e-05,5.750868149334565e-05,4.550370431388728e-05,0.00011201454617548734,0.00011118623660877347,0.00018868004553951323,0.0001889298582682386,-442.8258972167969,374.7129211425781,144.90647888183594,-144.871826171875,-198.16607666015625,63.01127243041992,259.75286865234375,-128.77796936035156,0.30149269104003906,-0.0012264581164345145,0.003726494964212179,0.00025564469979144633,-0.0026630559004843235,-0.00030443002469837666,0.0004899419727735221,-0.3112203776836395,-0.03779833763837814,0.04888344556093216,-0.0,2016.5234375,2839.73388671875,2480.915771484375,1716.46435546875
1767759451.147964,9124707774134530792,1811,26.402843475341797,30.322786331176758,54.44819641113281,53.03805160522461,-0.06683170795440674,-1.4910845756530762,-0.1519918292760849,-1.7213075160980225,-8.234381675720215,-178.4473419189453,-18.399951934814453,-206.43618774414062,0.0,0.0,0.0,0.0,9.82944493443938e-06,3.998078318545595e-05,1.027353573590517e-05,4.08813648391515e-05,-0.00014790025306865573,-0.00014652464597020298,-0.00027352210599929094,-0.00027402350679039955,-420.791748046875,391.8281555175781,170.1459503173828,-117.0254898071289,-200.51351928710938,61.91135025024414,250.29310607910156,-124.97664642333984,0.3015480041503906,0.0009737234213389456,-0.003796288976445794,-0.0002644043997861445,0.0025300378911197186,0.00032984022982418537,-0.0003273194015491754,0.3113871216773987,0.03811994194984436,-0.04907790571451187,-0.0,2010.541015625,2801.835693359375,2461.7421875,1671.021484375
1767759452.1918952,9124707774134530792,1833,26.40418243408203,30.34729766845703,54.45062255859375,53.066829681396484,0.07353722304105759,1.4785676002502441,0.15556810796260834,1.7163901329040527,8.703766822814941,177.65609741210938,18.61452865600586,206.2082061767578,0.0,0.0,0.0,0.0,5.8411045756656677e-05,4.589863237924874e-05,5.77776190766599e-05,4.5121203584130853e-05,0.0001091506055672653,0.0001083236129488796,0.0001874063746072352,0.00018765592540148646,-442.42498779296875,374.79296875,144.92138671875,-144.74899291992188,-198.06884765625,62.95616149902344,259.6607666015625,-128.75482177734375,0.30148959159851074,-0.0012281559174880385,0.003729061922058463,0.0002571789955254644,-0.0026543457061052322,-0.000303327280562371,0.0004901116481050849,-0.3101356327533722,-0.03813508525490761,0.049200866371393204,-0.0,2016.5087890625,2839.546630859375,2480.786376953125,1716.533447265625
1767759453.2355452,9124707774134530792,1854,26.40460777282715,30.347190856933594,54.45051956176758,53.06696319580078,0.06705522537231445,1.486279010772705,0.15132127702236176,1.7235426902770996,7.892399787902832,178.6686248779297,18.0512638092041,206.8251190185547,0.0,0.0,0.0,0.0,5.808994683320634e-05,4.5790235162712634e-05,5.744852387579158e-05,4.50172956334427e-05,0.0001109778750105761,0.00011013728362740949,0.00018741044914349914,0.0001876650785561651,-442.42840576171875,374.5089416503906,144.88641357421875,-144.7259979248047,-197.86476135253906,62.926910400390625,259.5710144042969,-128.74069213867188,0.3014869689941406,-0.001209683483466506,0.0037299322430044413,0.00025509597617201507,-0.00265201972797513,-0.00031201698584482074,0.0004958156496286392,-0.3110842704772949,-0.03854556754231453,0.049453478306531906,-0.0,2016.50341796875,2839.543701171875,2480.70751953125,1716.6494140625
1767759454.2463622,9124707774134530792,1874,26.40347671508789,30.322044372558594,54.447811126708984,53.038394927978516,-0.0745430514216423,-1.4863907098770142,-0.15377996861934662,-1.7206369638442993,-8.609890937805176,-178.05172729492188,-18.386539459228516,-206.5300750732422,0.0,0.0,0.0,0.0,9.704011063149665e-06,3.973316779593006e-05,1.0151061360375024e-05,4.062451625941321e-05,-0.0001479264028603211,-0.0001465555833419785,-0.00027416119701229036,-0.0002746608224697411,-420.4307556152344,391.53216552734375,169.9499053955078,-116.92764282226562,-200.38182067871094,61.84556198120117,250.10971069335938,-124.92523193359375,0.3015422821044922,0.0009755275095812976,-0.0037975716404616833,-0.00026470381999388337,0.0025312062352895737,0.0003291333559900522,-0.00032617562101222575,0.310934454202652,0.03793995454907417,-0.0489448718726635,-0.0,2010.60302734375,2801.65234375,2461.521240234375,1671.2269287109375
1767759455.2919214,9124707774134530792,1895,26.405000686645508,30.346677780151367,54.45026779174805,53.06723403930664,0.07018446177244186,1.4863907098770142,0.15467403829097748,1.7197428941726685,8.41542911529541,178.05172729492188,18.587705612182617,206.34231567382812,0.0,0.0,0.0,0.0,5.828727807966061e-05,4.58842987427488e-05,5.765676178270951e-05,4.5113833039067686e-05,0.00011019186786143109,0.00010936564649455249,0.00018768107111100107,0.00018793017079588026,-442.2114562988281,374.38128662109375,144.78721618652344,-144.68777465820312,-197.94488525390625,62.90161895751953,259.44525146484375,-128.6872100830078,0.3014841079711914,-0.0012345524737611413,0.003731043776497245,0.0002564714814070612,-0.0026601343415677547,-0.000302059983368963,0.0004891741555184126,-0.3111487030982971,-0.03790172189474106,0.04893622174859047,-0.0,2016.65283203125,2839.37744140625,2480.548095703125,1716.7860107421875
1767759456.350491,9124707774134530792,1916,26.40426254272461,30.321611404418945,54.44765853881836,53.0385856628418,-0.06895512342453003,-1.487843632698059,-0.15132127702236176,-1.7186253070831299,-8.556246757507324,-177.89749145507812,-18.480417251586914,-206.1277313232422,0.0,0.0,0.0,0.0,9.946262252924498e-06,3.9778129576006904e-05,1.0401991858088877e-05,4.066496330779046e-05,-0.0001488562993472442,-0.00014748417015653104,-0.0002741127973422408,-0.00027461288846097887,-420.2544250488281,391.38751220703125,169.97152709960938,-116.8890380859375,-200.29937744140625,61.813655853271484,249.9656219482422,-124.87853240966797,0.30153870582580566,0.0009700425434857607,-0.0037937883753329515,-0.0002639537851791829,0.0025320714339613914,0.0003307928564026952,-0.00032706678030081093,0.3112081289291382,0.03801482543349266,-0.04899729788303375,-0.0,2010.729248046875,2801.5517578125,2461.44140625,1671.3695068359375
1767759457.3953435,9124707774134530792,1937,26.405742645263672,30.346025466918945,54.450138092041016,53.06752395629883,0.07577239722013474,1.4726444482803345,0.1611560434103012,1.7257778644561768,8.562952041625977,177.21353149414062,18.909570693969727,207.12014770507812,0.0,0.0,0.0,0.0,5.959571717539802e-05,4.692389484262094e-05,5.896147922612727e-05,4.612215343513526e-05,0.00010676152305677533,0.00010594840568955988,0.0001848191604949534,0.00018506261403672397,-441.77069091796875,374.5098876953125,144.9197235107422,-144.50091552734375,-197.78355407714844,62.95307159423828,259.4728698730469,-128.59376525878906,0.3014795780181885,-0.001235592644661665,0.0037254770286381245,0.00025756150716915727,-0.002654661890119314,-0.0003013482200913131,0.0004932781448587775,-0.30952519178390503,-0.03851497545838356,0.04975001513957977,-0.0,2016.7215576171875,2839.2080078125,2480.58935546875,1716.8466796875
1767759458.4406493,9124707774134530792,1958,26.404752731323242,30.3211669921875,54.44744873046875,53.03894805908203,-0.06739050149917603,-1.4776735305786133,-0.1535564512014389,-1.723319172859192,-8.187442779541016,-177.34092712402344,-18.54747200012207,-206.9994659423828,0.0,0.0,0.0,0.0,1.0510996617085766e-05,4.01115721615497e-05,1.0991253475367557e-05,4.10000684496481e-05,-0.00014943339920137078,-0.0001480606006225571,-0.0002736381138674915,-0.0002741382922977209,-420.0218200683594,391.10321044921875,169.8822784423828,-116.88262939453125,-200.2439422607422,61.813236236572266,250.0081787109375,-124.82256317138672,0.30153465270996094,0.0009469109936617315,-0.0037923764903098345,-0.0002623721957206726,0.002518377499654889,0.00034005538327619433,-0.0003329470637254417,0.31030747294425964,0.03860487788915634,-0.04972900077700615,-0.0,2010.88232421875,2801.488037109375,2461.3310546875,1671.5439453125
1767759459.4988205,9124707774134530792,1979,26.406312942504883,30.34562110900879,54.44991683959961,53.06773376464844,0.07264315336942673,1.468397617340088,0.15847383439540863,1.7244367599487305,8.583067893981934,176.53627014160156,18.855926513671875,207.36155700683594,0.0,0.0,0.0,0.0,5.967244578641839e-05,4.6859138819854707e-05,5.9047080867458135e-05,4.60544069937896e-05,0.00010633724014041945,0.00010552756430115551,0.0001842865312937647,0.00018452874792274088,-441.5654602050781,374.3411560058594,144.883056640625,-144.41909790039062,-197.7012939453125,62.91409683227539,259.356689453125,-128.5508575439453,0.30147576332092285,-0.0012413017684593797,0.003728110808879137,0.00025826823548413813,-0.002654050011187792,-0.00029918953077867627,0.0004915723111480474,-0.3094523251056671,-0.0384254977107048,0.049696557223796844,-0.0,2016.80712890625,2839.0234375,2480.44775390625,1716.956298828125
1767759460.5361772,9124707774134530792,2000,26.40644645690918,30.345436096191406,54.44978713989258,53.06790542602539,0.06917864084243774,1.4816968441009521,0.15445052087306976,1.7242132425308228,8.26120376586914,177.5890350341797,18.64134979248047,206.8251190185547,0.0,0.0,0.0,0.0,5.96181744185742e-05,4.68713442387525e-05,5.899739699088968e-05,4.607296432368457e-05,0.0001078090353985317,0.00010699364065658301,0.00018454165547154844,0.00018478564743418247,-441.5498352050781,374.1018371582031,144.82789611816406,-144.40658569335938,-197.64715576171875,62.896331787109375,259.2837829589844,-128.52578735351562,0.30147480964660645,-0.0012386147864162922,0.003726915456354618,0.0002566285547800362,-0.002656137105077505,-0.0003012327942997217,0.000494080304633826,-0.31041643023490906,-0.03838890790939331,0.049558110535144806,-0.0,2016.8128662109375,2839.05126953125,2480.3583984375,1717.0399169921875
1767759461.5388186,9124707774134530792,2020,26.405620574951172,30.320663452148438,54.447059631347656,53.039215087890625,-0.06604939699172974,-1.4780088663101196,-0.15467403829097748,-1.7275660037994385,-7.845460891723633,-177.61587524414062,-18.453596115112305,-207.3883819580078,0.0,0.0,0.0,0.0,1.0410713002784178e-05,4.04589663958177e-05,1.0885866686294321e-05,4.136751522310078e-05,-0.00014809526328463107,-0.00014671120152343065,-0.0002736750466283411,-0.00027417950332164764,-419.89739990234375,390.70867919921875,169.76710510253906,-116.8037109375,-200.13023376464844,61.795169830322266,249.8417205810547,-124.71810913085938,0.3015289306640625,0.000935049494728446,-0.0037871224340051413,-0.0002620300801936537,0.002501056995242834,0.000344699015840888,-0.0003395795647520572,0.3095713257789612,0.039212603121995926,-0.05030234903097153,-0.0,2011.080810546875,2801.2998046875,2461.115478515625,1671.6507568359375
1767759462.5447721,9124707774134530792,2041,26.405977249145508,30.320249557495117,54.44706344604492,53.03934097290039,-0.0640377402305603,-1.4804675579071045,-0.15109775960445404,-1.7219780683517456,-8.314847946166992,-177.4683380126953,-18.534061431884766,-206.51666259765625,0.0,0.0,0.0,0.0,1.0761646990431473e-05,3.985690636909567e-05,1.1255171557422727e-05,4.072145020472817e-05,-0.00015230142162181437,-0.00015093183901626617,-0.00027485782629810274,-0.00027535666595213115,-419.4042663574219,390.91552734375,169.7931671142578,-116.72588348388672,-200.06871032714844,61.726043701171875,249.7379608154297,-124.74322509765625,0.3015270233154297,0.0009488151408731937,-0.0037889061495661736,-0.0002611074596643448,0.002534547820687294,0.0003395194071345031,-0.0003314718196634203,0.3113885819911957,0.038203008472919464,-0.049379270523786545,-0.0,2011.032470703125,2801.25537109375,2461.137451171875,1671.79638671875
1767759463.5506165,9124707774134530792,2061,26.406253814697266,30.32018280029297,54.44685363769531,53.03938674926758,-0.0685080885887146,-1.4764442443847656,-0.15579162538051605,-1.7260013818740845,-8.066742897033691,-177.5085906982422,-18.399951934814453,-207.2542724609375,0.0,0.0,0.0,0.0,1.0558808753557969e-05,4.030422860523686e-05,1.1041557627322618e-05,4.120088124182075e-05,-0.00014901187387295067,-0.0001476342004025355,-0.00027369509916752577,-0.0002741972275543958,-419.6611633300781,390.59051513671875,169.68875122070312,-116.76634979248047,-200.05978393554688,61.75253677368164,249.70899963378906,-124.68973541259766,0.301525354385376,0.0009362278506159782,-0.0037911133840680122,-0.00026147812604904175,0.002507740631699562,0.0003452532982919365,-0.0003388861077837646,0.3096478283405304,0.03905458748340607,-0.05020580813288689,-0.0,2011.154052734375,2801.192138671875,2460.9873046875,1671.758056640625
1767759464.5915012,9124707774134530792,2082,26.407489776611328,30.344585418701172,54.449249267578125,53.06829833984375,0.05912035331130028,1.481585144996643,0.14573334157466888,1.7309187650680542,7.590651035308838,177.9176025390625,17.9439754486084,206.94581604003906,0.0,0.0,0.0,0.0,5.954473090241663e-05,4.6512643166352063e-05,5.892362605663948e-05,4.5696127926930785e-05,0.00010794345871545374,0.00010711752838687971,0.0001844176440499723,0.0001846654195105657,-441.1768493652344,373.70306396484375,144.6892852783203,-144.29965209960938,-197.4794464111328,62.804744720458984,259.0195617675781,-128.4604034423828,0.3014669418334961,-0.0012245941907167435,0.0037262660916894674,0.00025535901659168303,-0.0026550195179879665,-0.00030783552210778,0.0004989012377336621,-0.3113192021846771,-0.03888252377510071,0.04996025934815407,-0.0,2016.85693359375,2838.798583984375,2480.04833984375,1717.2943115234375
1767759465.5975423,9124707774134530792,2102,26.407917022705078,30.34433937072754,54.44928741455078,53.06834411621094,0.06873160600662231,1.4782323837280273,0.1548975557088852,1.7226486206054688,8.080154418945312,177.2001190185547,18.453596115112305,206.7178192138672,0.0,0.0,0.0,0.0,5.98305014136713e-05,4.672409704653546e-05,5.921938281971961e-05,4.590907337842509e-05,0.00010634302452672273,0.0001055270477081649,0.00018399828695692122,0.00018424256995785981,-441.0117492675781,373.7852783203125,144.67784118652344,-144.2493896484375,-197.44276428222656,62.811344146728516,258.9771423339844,-128.42227172851562,0.3014640808105469,-0.0012380332918837667,0.00372762861661613,0.0002572123776189983,-0.002651509130373597,-0.00030152295948937535,0.0004952705930918455,-0.31012940406799316,-0.03859822079539299,0.04977070540189743,-0.0,2017.011474609375,2838.736083984375,2480.092041015625,1717.296630859375
1767759466.6361434,9124707774134530792,2123,26.40799903869629,30.343994140625,54.449100494384766,53.068485260009766,0.06806105375289917,1.4821438789367676,0.1504272073507309,1.723319172859192,8.220970153808594,177.53538513183594,18.31948471069336,206.78488159179688,0.0,0.0,0.0,0.0,5.9823614719789475e-05,4.66530145786237e-05,5.922128548263572e-05,4.5838605728931725e-05,0.00010661689884727821,0.0001057996487361379,0.00018392309721093625,0.00018416770035400987,-440.9359436035156,373.6651306152344,144.62657165527344,-144.20384216308594,-197.399658203125,62.78985595703125,258.8791198730469,-128.3896026611328,0.3014638423919678,-0.0012408958282321692,0.0037280130200088024,0.00025685704895295203,-0.0026523922570049763,-0.0003008114581461996,0.0004953385796397924,-0.31064146757125854,-0.03851732239127159,0.04965893179178238,-0.0,2017.014892578125,2838.672607421875,2479.955078125,1717.375
1767759467.640602,9124707774134530792,2143,26.407114028930664,30.3446044921875,54.448143005371094,53.06901550292969,-0.004095456097275019,1.5158722400665283,0.08987865597009659,1.7265113592147827,3.2084290981292725,182.02984619140625,14.082976341247559,207.77902221679688,0.0,0.0,0.0,0.0,5.783380038337782e-05,4.622330015990883e-05,5.7220026064896956e-05,4.547516437014565e-05,0.00011975457891821861,0.00011886568245245144,0.00018501283193472773,0.00018528276996221393,-441.57025146484375,372.2237243652344,144.46676635742188,-144.20654296875,-197.19525146484375,62.70669937133789,258.55108642578125,-128.3603515625,0.30146217346191406,-0.0011619102442637086,0.0038204181473702192,0.00024688849225640297,-0.0026869038119912148,-0.0003642516094259918,0.0005309465923346579,-0.3177203834056854,-0.04036669805645943,0.04981056973338127,-0.0,2016.2490234375,2838.751953125,2478.9228515625,1717.5369873046875
1767759468.647541,9124707774134530792,2163,26.408226013183594,30.319313049316406,54.44657897949219,53.03984451293945,-0.06996094435453415,-1.4759972095489502,-0.1504272073507309,-1.7190723419189453,-8.790938377380371,-176.77096557617188,-18.37312889099121,-206.58370971679688,0.0,0.0,0.0,0.0,1.1316591553622857e-05,4.045948662678711e-05,1.1802035260188859e-05,4.1330433305120096e-05,-0.00014979633851908147,-0.00014842550444882363,-0.0002730768173933029,-0.0002735767629928887,-419.092529296875,390.42095947265625,169.4870147705078,-116.53998565673828,-199.90980529785156,61.67283630371094,249.06455993652344,-124.56148529052734,0.3015155792236328,0.0009583422797732055,-0.003794244257733226,-0.0002635361743159592,0.0025240392424166203,0.00033448386238887906,-0.00032753459527157247,0.3106015622615814,0.03814111277461052,-0.04933815076947212,-0.0,2011.4163818359375,2801.031005859375,2460.83544921875,1672.1278076171875
1767759469.7004893,9124707774134530792,2184,26.409698486328125,30.343595504760742,54.448917388916016,53.06858825683594,0.0729784294962883,1.4639272689819336,0.15288589894771576,1.723319172859192,8.723883628845215,176.36863708496094,18.19878578186035,206.90557861328125,0.0,0.0,0.0,0.0,5.988596603856422e-05,4.643987267627381e-05,5.927096208324656e-05,4.560677916742861e-05,0.0001045225581037812,0.00010370204108767211,0.00018350820755586028,0.00018375480431132019,-440.4826965332031,373.73272705078125,144.63002014160156,-144.00411987304688,-197.30892944335938,62.72624588012695,258.65057373046875,-128.31576538085938,0.30145740509033203,-0.0012259160866960883,0.003725040005519986,0.00025842917966656387,-0.0026418548077344894,-0.000304280110867694,0.0004965909174643457,-0.3084130585193634,-0.03909452632069588,0.05024748668074608,-0.0,2017.29296875,2838.47998046875,2479.976806640625,1717.4329833984375
1767759470.737942,9124707774134530792,2206,26.409881591796875,30.343626022338867,54.44877624511719,53.06855010986328,0.07275491207838058,1.4785676002502441,0.1519918292760849,1.7172842025756836,8.697061538696289,177.5689239501953,18.19878578186035,206.18138122558594,0.0,0.0,0.0,0.0,5.8995017752749845e-05,4.58549075119663e-05,5.838233482791111e-05,4.5055530790705234e-05,0.00010818599548656493,0.00010735918476711959,0.00018726418784353882,0.00018751362222246826,-440.6536865234375,373.3013000488281,144.31936645507812,-144.13809204101562,-197.15390014648438,62.6628532409668,258.4421691894531,-128.28965759277344,0.3014554977416992,-0.0012302846880629659,0.003729509888216853,0.0002568988420534879,-0.0026518916711211205,-0.0003032343811355531,0.0004917908227071166,-0.3103894293308258,-0.03824905678629875,0.04928266629576683,-0.0,2017.406005859375,2838.49365234375,2479.767822265625,1717.53759765625
1767759471.7405329,9124707774134530792,2226,26.408889770507812,30.3187313079834,54.446136474609375,53.040103912353516,-0.0624731183052063,-1.480020523071289,-0.15020368993282318,-1.717731237411499,-7.724761486053467,-178.49429321289062,-17.99761962890625,-206.10092163085938,0.0,0.0,0.0,0.0,1.1125061973871198e-05,4.006633025710471e-05,1.1623154932749458e-05,4.0936836740002036e-05,-0.00015186014934442937,-0.00015047314809635282,-0.0002738920447882265,-0.00027439784025773406,-418.628662109375,390.13323974609375,169.36105346679688,-116.39163970947266,-199.751953125,61.597591400146484,248.81541442871094,-124.47561645507812,0.3015100955963135,0.0009322953410446644,-0.0037848507054150105,-0.00026013865135610104,0.002512048464268446,0.00034667603904381394,-0.0003408125485293567,0.3102926015853882,0.038815662264823914,-0.04992516338825226,-0.0,2011.567138671875,2800.750732421875,2460.644287109375,1672.2650146484375
1767759472.7487178,9124707774134530792,2246,26.409059524536133,30.318389892578125,54.44602584838867,53.04027557373047,-0.07074325531721115,-1.47309148311615,-0.15154479444026947,-1.7190723419189453,-8.522717475891113,-176.6770782470703,-18.29266357421875,-206.63735961914062,0.0,0.0,0.0,0.0,1.1005888154613785e-05,3.988847674918361e-05,1.1504052054078784e-05,4.0751834603725e-05,-0.00015046299085952342,-0.0001490949362050742,-0.00027318604406900704,-0.00027368467999622226,-418.68939208984375,389.9632263183594,169.28855895996094,-116.40689849853516,-199.7230224609375,61.575618743896484,248.96388244628906,-124.46245574951172,0.30150794982910156,0.0009472226956859231,-0.003791515249758959,-0.0002624517946969718,0.002520395442843437,0.0003389859921298921,-0.00033070938661694527,0.30992594361305237,0.038336269557476044,-0.049501337110996246,-0.0,2011.529052734375,2800.75927734375,2460.599609375,1672.37060546875
1767759473.7868075,9124707774134530792,2267,26.40941619873047,30.31817626953125,54.44597244262695,53.04026794433594,-0.06146728992462158,-1.4834849834442139,-0.14953313767910004,-1.7175077199935913,-8.086859703063965,-178.42051696777344,-18.279251098632812,-205.65835571289062,0.0,0.0,0.0,0.0,1.1212093340873253e-05,3.99216623918619e-05,1.1718041605490725e-05,4.0775972593110055e-05,-0.00015370936307590455,-0.00015233218437060714,-0.00027588114608079195,-0.00027638330357149243,-418.1969909667969,390.20562744140625,169.2557373046875,-116.20437622070312,-199.66506958007812,61.546661376953125,248.62356567382812,-124.40033721923828,0.30150604248046875,0.0009492620592936873,-0.00378632009960711,-0.00026089767925441265,0.0025365850888192654,0.0003389058983884752,-0.0003308597079012543,0.31161123514175415,0.03794293850660324,-0.04910111427307129,-0.0,2011.5653076171875,2800.650390625,2460.567138671875,1672.37158203125
1767759474.7978308,9124707774134530792,2287,26.410810470581055,30.342538833618164,54.44841003417969,53.06905746459961,0.0774487778544426,1.467503547668457,0.16048549115657806,1.7143784761428833,9.126214981079102,176.053466796875,18.949804306030273,206.19479370117188,0.0,0.0,0.0,0.0,6.044407928129658e-05,4.701754005509429e-05,5.984398740110919e-05,4.619691026164219e-05,0.00010490528075024486,0.00010410766844870523,0.00018417119281366467,0.00018440869462210685,-440.07806396484375,373.2241516113281,144.33706665039062,-143.83282470703125,-197.0796356201172,62.69134521484375,258.2562255859375,-128.09210205078125,0.30144786834716797,-0.0012548599625006318,0.0037285780999809504,0.0002586329646874219,-0.0026567266322672367,-0.0002949760528281331,0.0004908308619633317,-0.3091879189014435,-0.03822046145796776,0.04959116503596306,-0.0,2017.550048828125,2838.150146484375,2479.64404296875,1717.6785888671875
1767759475.798733,9124707774134530792,2307,26.411481857299805,30.34269905090332,54.44825744628906,53.06916427612305,0.06973743438720703,1.4781205654144287,0.14640389382839203,1.725554347038269,7.966160297393799,177.3610382080078,17.79645347595215,206.6507568359375,0.0,0.0,0.0,0.0,5.959258851362392e-05,4.683770748670213e-05,5.897099617868662e-05,4.6038523578317836e-05,0.0001079893991118297,0.00010716581164160743,0.00018454236851539463,0.00018478960555512458,-440.1901550292969,372.9735107421875,144.27255249023438,-143.81689453125,-196.9156951904297,62.65205764770508,258.10870361328125,-128.07020568847656,0.30144572257995605,-0.0012187047395855188,0.003727441653609276,0.00025537959299981594,-0.0026531764306128025,-0.00031021336326375604,0.000499491288792342,-0.31029215455055237,-0.03894426301121712,0.04992253705859184,-0.0,2017.584716796875,2838.2529296875,2479.57568359375,1717.771240234375
1767759476.8404474,9124707774134530792,2329,26.411909103393555,30.342466354370117,54.44820785522461,53.069175720214844,0.070072703063488,1.4771147966384888,0.15087424218654633,1.7253308296203613,8.254497528076172,177.52870178222656,18.037853240966797,207.03968811035156,0.0,0.0,0.0,0.0,5.989567580400035e-05,4.7055571485543624e-05,5.927001257077791e-05,4.625008295988664e-05,0.00010709590424085036,0.00010627661686157808,0.00018487212946638465,0.00018511776579543948,-440.0775146484375,372.9859619140625,144.20506286621094,-143.7977752685547,-197.03915405273438,62.65766143798828,258.0509033203125,-128.02378845214844,0.30144476890563965,-0.0012261595111340284,0.003721838351339102,0.0002564256719779223,-0.0026529007591307163,-0.00030549612711183727,0.000497605768032372,-0.30993396043777466,-0.03873378410935402,0.04985976219177246,-0.0,2017.701416015625,2838.21142578125,2479.572265625,1717.783447265625
1767759477.8487768,9124707774134530792,2349,26.41095542907715,30.317726135253906,54.44559097290039,53.04059600830078,-0.07286667078733444,-1.474767804145813,-0.15132127702236176,-1.7219780683517456,-8.676944732666016,-177.24034118652344,-18.011030197143555,-206.6909942626953,0.0,0.0,0.0,0.0,1.1092820386693347e-05,4.0999344491865486e-05,1.1562981853785459e-05,4.189863466308452e-05,-0.00014795263996347785,-0.00014657298743259162,-0.00027326602139510214,-0.0002737695467658341,-418.4804382324219,389.5608215332031,168.9127197265625,-116.2450180053711,-199.58522033691406,61.57592010498047,248.3723907470703,-124.22250366210938,0.3014991283416748,0.0009486450580880046,-0.0037919925525784492,-0.00026347115635871887,0.0025081848725676537,0.0003383460862096399,-0.00033245881786569953,0.30962812900543213,0.03871261328458786,-0.04984404891729355,-0.0,2011.951171875,2800.521484375,2460.3232421875,1672.5283203125
1767759478.8913898,9124707774134530792,2370,26.412288665771484,30.342004776000977,54.44792175292969,53.06940841674805,0.06839632987976074,1.4796851873397827,0.14528630673885345,1.7246602773666382,8.267909049987793,177.62925720214844,17.608699798583984,206.87875366210938,0.0,0.0,0.0,0.0,5.974458690616302e-05,4.6909561206121e-05,5.9125748521182686e-05,4.6106524678179994e-05,0.00010787890641950071,0.00010705781460274011,0.00018468397320248187,0.0001849302789196372,-439.92864990234375,372.7145690917969,144.11993408203125,-143.7088623046875,-196.79286193847656,62.612815856933594,257.8675842285156,-127.96251678466797,0.3014395236968994,-0.0012292213505133986,0.003724165726453066,0.0002561621367931366,-0.00265303160995245,-0.00030447173048742115,0.0004964618128724396,-0.3104218542575836,-0.038591913878917694,0.04965760186314583,-0.0,2017.7303466796875,2838.06591796875,2479.38330078125,1717.912109375
1767759479.9018867,9124707774134530792,2390,26.4125919342041,30.341814041137695,54.44791030883789,53.069480895996094,0.07130204886198044,1.474656105041504,0.14998017251491547,1.7197428941726685,8.341670036315918,176.92518615722656,18.037853240966797,206.2082061767578,0.0,0.0,0.0,0.0,6.013392339809798e-05,4.693265873356722e-05,5.952593346592039e-05,4.611672193277627e-05,0.0001059079440892674,0.00010509333515074104,0.0001842686178861186,0.00018451252253726125,-439.7337951660156,372.8352355957031,144.1060333251953,-143.65115356445312,-196.9106903076172,62.606380462646484,257.8309020996094,-127.93037414550781,0.301438570022583,-0.0012344135902822018,0.003726497059687972,0.0002569910720922053,-0.002651694230735302,-0.0003032991080544889,0.0004966988926753402,-0.3096127212047577,-0.03870142623782158,0.04984185844659805,-0.0,2017.7978515625,2838.010498046875,2479.420654296875,1717.9232177734375
1767759480.937491,9124707774134530792,2411,26.41266632080078,30.34140396118164,54.44778060913086,53.0695915222168,0.07096677273511887,1.4727561473846436,0.1506507247686386,1.7226486206054688,8.556245803833008,176.89166259765625,17.930564880371094,206.6641845703125,0.0,0.0,0.0,0.0,6.023570676916279e-05,4.665330197894946e-05,5.9635243815137073e-05,4.5820732339052483e-05,0.00010485973325558007,0.00010404401837149635,0.00018410263874102384,0.0001843471109168604,-439.586669921875,372.84503173828125,144.07606506347656,-143.6148681640625,-196.8740234375,62.57184982299805,257.7680969238281,-127.92539978027344,0.3014373779296875,-0.0012381403939798474,0.00372437946498394,0.000257757114013657,-0.002647092565894127,-0.00030061471625231206,0.0004960783408023417,-0.3093923032283783,-0.03873779997229576,0.04993939772248268,-0.0,2017.80810546875,2837.901123046875,2479.3603515625,1718.0189208984375
1767759481.938882,9124707774134530792,2432,26.412845611572266,30.34113311767578,54.447662353515625,53.069671630859375,0.07387249916791916,1.473762035369873,0.15132127702236176,1.7186253070831299,8.723883628845215,176.73744201660156,18.131731033325195,206.24844360351562,0.0,0.0,0.0,0.0,6.033508907421492e-05,4.6700726670678705e-05,5.9740930737461895e-05,4.586840805131942e-05,0.00010443659994052723,0.00010362535977037624,0.00018395391816738993,0.00018419670232106,-439.472900390625,372.8096618652344,144.03765869140625,-143.5687713623047,-196.83132934570312,62.56352996826172,257.6932067871094,-127.88836669921875,0.3014352321624756,-0.0012450062204152346,0.003725164569914341,0.00025844082119874656,-0.002648088615387678,-0.00029759047902189195,0.0004937818157486618,-0.3091566860675812,-0.03856009244918823,0.04977872967720032,-0.0,2017.840087890625,2837.850341796875,2479.28515625,1718.0322265625
1767759482.943321,9124707774134530792,2452,26.411941528320312,30.316452026367188,54.445068359375,53.04111099243164,-0.0706314966082573,-1.4739855527877808,-0.14953313767910004,-1.7210839986801147,-8.46236801147461,-176.96542358398438,-17.890331268310547,-206.51666259765625,0.0,0.0,0.0,0.0,1.1610096407821402e-05,4.0695413190405816e-05,1.2110356692573987e-05,4.156542490818538e-05,-0.00015047210035845637,-0.0001490926370024681,-0.00027431000489741564,-0.00027481341385282576,-417.8197937011719,389.2901916503906,168.70574951171875,-116.0330810546875,-199.3925018310547,61.476707458496094,247.9208221435547,-124.07705688476562,0.30149054527282715,0.0009323530248366296,-0.003789125010371208,-0.00026172687648795545,0.0025057662278413773,0.00034490058897063136,-0.0003357353853061795,0.30930188298225403,0.03873840346932411,-0.049905888736248016,-0.0,2012.018310546875,2800.239990234375,2460.060302734375,1672.8494873046875
1767759483.9858532,9124707774134530792,2473,26.412073135375977,30.316162109375,54.44493103027344,53.04120635986328,-0.070072703063488,-1.4733150005340576,-0.14998017251491547,-1.7204134464263916,-8.428840637207031,-176.77767944335938,-17.957386016845703,-206.28866577148438,0.0,0.0,0.0,0.0,1.1731074664567132e-05,4.049392737215385e-05,1.2240629985171836e-05,4.135084236622788e-05,-0.0001516759512014687,-0.00015029791393317282,-0.00027471670182421803,-0.0002752194122876972,-417.62982177734375,389.28302001953125,168.67153930664062,-115.97711181640625,-199.35256958007812,61.44442367553711,247.8206329345703,-124.05416107177734,0.30148887634277344,0.0009311741450801492,-0.0037895452696830034,-0.00026096220244653523,0.0025102996733039618,0.00034615196636877954,-0.00033663297654129565,0.30947086215019226,0.03861774504184723,-0.04985464736819267,-0.0,2012.017822265625,2800.196044921875,2459.974365234375,1672.9168701171875
1767759485.0005345,9124707774134530792,2494,26.413488388061523,30.340490341186523,54.44735336303711,53.06995391845703,0.0745430514216423,1.4678387641906738,0.15310941636562347,1.7154960632324219,8.938460350036621,176.053466796875,18.37312889099121,206.11431884765625,0.0,0.0,0.0,0.0,6.0460824897745624e-05,4.664723019232042e-05,5.987690747133456e-05,4.581066605169326e-05,0.00010361750173615292,0.000102812766272109,0.000183684125659056,0.00018392447964288294,-439.1650695800781,372.6178894042969,143.92164611816406,-143.44541931152344,-196.71322631835938,62.5159912109375,257.4697265625,-127.79488372802734,0.30142974853515625,-0.0012568183010444045,0.0037279357202351093,0.0002593141107354313,-0.002647729590535164,-0.0002932566567324102,0.0004914668970741332,-0.3088071048259735,-0.038336459547281265,0.049690764397382736,-0.0,2017.94140625,2837.611328125,2479.132568359375,1718.18505859375
1767759486.0438352,9124707774134530792,2515,26.41268539428711,30.316001892089844,54.44468688964844,53.0413818359375,-0.0714138075709343,-1.4682857990264893,-0.1490861028432846,-1.7219780683517456,-8.019804954528809,-177.03248596191406,-17.367300033569336,-206.87875366210938,0.0,0.0,0.0,0.0,1.1658056791929994e-05,4.0994618757395074e-05,1.2155421245552134e-05,4.187866215943359e-05,-0.0001489445276092738,-0.00014755522715859115,-0.00027357437647879124,-0.0002740815107244998,-417.7386169433594,388.9128723144531,168.51602172851562,-115.98731231689453,-199.30181884765625,61.4600830078125,247.70391845703125,-123.96663665771484,0.3014862537384033,0.0009145027725026011,-0.0037874141708016396,-0.00026100227842107415,0.0024805653374642134,0.0003530920948833227,-0.0003456526028458029,0.30776748061180115,0.03950938209891319,-0.050727903842926025,-0.0,2012.208740234375,2800.09765625,2459.8642578125,1672.97998046875
1767759487.0883965,9124707774134530792,2536,26.412872314453125,30.31560516357422,54.444644927978516,53.04150390625,-0.07174908369779587,-1.4734266996383667,-0.14930962026119232,-1.7186253070831299,-8.56295108795166,-176.91848754882812,-17.809865951538086,-206.2082061767578,0.0,0.0,0.0,0.0,1.1759780136344489e-05,4.025133966933936e-05,1.227704888151493e-05,4.110057489015162e-05,-0.0001523797691334039,-0.00015100186283234507,-0.0002742002543527633,-0.000274702935712412,-417.3135070800781,389.0631103515625,168.59661865234375,-115.92642974853516,-199.2289276123047,61.38218688964844,247.59678649902344,-123.98594665527344,0.3014841079711914,0.0009265115950256586,-0.0037883613258600235,-0.00026052689645439386,0.0025078007020056248,0.0003479245351627469,-0.00033796741627156734,0.3091605603694916,0.03866742551326752,-0.049899980425834656,-0.0,2012.11474609375,2800.01416015625,2459.818115234375,1673.1048583984375
1767759488.1014948,9124707774134530792,2556,26.414398193359375,30.33983612060547,54.44702911376953,53.07020568847656,0.07309018820524216,1.4748796224594116,0.14618037641048431,1.7166136503219604,8.790938377380371,176.6435546875,17.890331268310547,205.9131622314453,0.0,0.0,0.0,0.0,6.0210593801457435e-05,4.632994023268111e-05,5.963343573966995e-05,4.549149889498949e-05,0.00010388952068751678,0.00010307315096724778,0.00018322629330214113,0.00018347115837968886,-438.94940185546875,372.3429870605469,143.81838989257812,-143.31378173828125,-196.62257385253906,62.44986343383789,257.2159729003906,-127.71964263916016,0.3014259338378906,-0.0012489650398492813,0.0037268337327986956,0.00025911908596754074,-0.0026415311731398106,-0.0002956986427307129,0.0004935588804073632,-0.30915531516075134,-0.038513779640197754,0.049703340977430344,-0.0,2018.0584716796875,2837.49658203125,2478.91943359375,1718.3167724609375
1767759489.15049,9124707774134530792,2577,26.41319465637207,30.31501579284668,54.444400787353516,53.04172897338867,-0.07208435982465744,-1.4723091125488281,-0.15288589894771576,-1.7163901329040527,-8.556245803833008,-176.37533569335938,-18.29266357421875,-205.95338439941406,0.0,0.0,0.0,0.0,1.1863799045386259e-05,3.9958282286534086e-05,1.239223092852626e-05,4.079021528013982e-05,-0.00015309147420339286,-0.00015171933046076447,-0.0002748775004874915,-0.0002753778244368732,-417.09735107421875,388.9380798339844,168.54676818847656,-115.82828521728516,-199.15768432617188,61.3309326171875,247.62905883789062,-123.93927001953125,0.3014793395996094,0.0009254777687601745,-0.0037894912529736757,-0.00026022049132734537,0.0025119329802691936,0.00034856004640460014,-0.00033721548970788717,0.30925679206848145,0.03850993141531944,-0.04979259520769119,-0.0,2012.14599609375,2799.90771484375,2459.701416015625,1673.24169921875
1767759490.1947675,9124707774134530792,2598,26.414609909057617,30.339311599731445,54.44684600830078,53.07042694091797,0.07241963595151901,1.468397617340088,0.15400348603725433,1.7175077199935913,8.643417358398438,176.355224609375,18.413362503051758,206.15455627441406,0.0,0.0,0.0,0.0,6.0744216170860454e-05,4.6111639676382765e-05,6.017913619871251e-05,4.524054020293988e-05,0.00010160804959014058,0.0001007991741062142,0.00018322041432838887,0.00018346238357480615,-438.6183166503906,372.39556884765625,143.73191833496094,-143.24777221679688,-196.51853942871094,62.4098014831543,257.10809326171875,-127.67745971679688,0.3014214038848877,-0.0012589122634381056,0.0037252819165587425,0.000260304135736078,-0.002641220111399889,-0.00029116138466633856,0.000491756247356534,-0.3087754547595978,-0.038586292415857315,0.04992922022938728,-0.0,2018.0648193359375,2837.345458984375,2478.849853515625,1718.477294921875
1767759491.2425628,9124707774134530792,2619,26.41353416442871,30.31454849243164,54.444156646728516,53.04193115234375,-0.06973743438720703,-1.4709680080413818,-0.1504272073507309,-1.7195193767547607,-8.308141708374023,-176.8044891357422,-17.82327651977539,-206.44960021972656,0.0,0.0,0.0,0.0,1.210262234963011e-05,3.9976031985133886e-05,1.2645199603866786e-05,4.080499638803303e-05,-0.00015444734890479594,-0.00015306803106795996,-0.0002751165593508631,-0.00027561947354115546,-416.8878479003906,388.8429870605469,168.4545440673828,-115.75459289550781,-199.07455444335938,61.299293518066406,247.447998046875,-123.87338256835938,0.30147743225097656,0.0009061056771315634,-0.003784985514357686,-0.00025813429965637624,0.0025014635175466537,0.000357377459295094,-0.0003456760023254901,0.30876579880714417,0.03898213803768158,-0.05031808465719223,-0.0,2012.2235107421875,2799.77783203125,2459.586669921875,1673.3319091796875
1767759492.244525,9124707774134530792,2639,26.4138240814209,30.314315795898438,54.44410705566406,53.0419921875,-0.0753253623843193,-1.4691798686981201,-0.15288589894771576,-1.717731237411499,-8.723883628845215,-176.07357788085938,-18.359718322753906,-206.11431884765625,0.0,0.0,0.0,0.0,1.2083522960892878e-05,3.9763668610248715e-05,1.2624996088561602e-05,4.058137346873991e-05,-0.00015404904843308032,-0.00015267862181644887,-0.0002749882114585489,-0.00027548789512366056,-416.841552734375,388.7457580566406,168.3998260498047,-115.7358627319336,-199.03700256347656,61.273250579833984,247.38038635253906,-123.85997772216797,0.30147528648376465,0.0009166842210106552,-0.0037895517889410257,-0.00025921815540641546,0.002509759273380041,0.00035256013507023454,-0.0003396243555471301,0.30883175134658813,0.038636911660432816,-0.04994956776499748,-0.0,2012.2113037109375,2799.759765625,2459.53515625,1673.3822021484375
1767759493.244767,9124707774134530792,2659,26.414108276367188,30.313884735107422,54.444087982177734,53.04209518432617,-0.0721961185336113,-1.4671682119369507,-0.1506507247686386,-1.7157195806503296,-9.07257080078125,-174.97389221191406,-18.61452865600586,-205.79244995117188,0.0,0.0,0.0,0.0,1.2499009244493209e-05,4.020012420369312e-05,1.3047039828961715e-05,4.101650483789854e-05,-0.0001551660243421793,-0.00015379561227746308,-0.0002751393767539412,-0.0002756390313152224,-416.6700744628906,388.7333984375,168.3626251220703,-115.70793151855469,-199.02052307128906,61.28919982910156,247.2763671875,-123.81062316894531,0.30147457122802734,0.000911801471374929,-0.0037846576888114214,-0.00025885060313157737,0.0025112139992415905,0.000353198847733438,-0.00033883951255120337,0.3093993663787842,0.03865261748433113,-0.0499609112739563,-0.0,2012.27978515625,2799.7119140625,2459.5185546875,1673.490478515625
