timestamp,session_uid,frame,suspension_pos_rl,suspension_pos_rr,suspension_pos_fl,suspension_pos_fr,suspension_vel_rl,suspension_vel_rr,suspension_vel_fl,suspension_vel_fr,suspension_acc_rl,suspension_acc_rr,suspension_acc_fl,suspension_acc_fr,wheel_speed_rl,wheel_speed_rr,wheel_speed_fl,wheel_speed_fr,wheel_slip_ratio_rl,wheel_slip_ratio_rr,wheel_slip_ratio_fl,wheel_slip_ratio_fr,wheel_slip_angle_rl,wheel_slip_angle_rr,wheel_slip_angle_fl,wheel_slip_angle_fr,wheel_lat_force_rl,wheel_lat_force_rr,wheel_lat_force_fl,wheel_lat_force_fr,wheel_long_force_rl,wheel_long_force_rr,wheel_long_force_fl,wheel_long_force_fr,height_of_cog,local_velocity_x,local_velocity_y,local_velocity_z,angular_velocity_x,angular_velocity_y,angular_velocity_z,angular_acceleration_x,angular_acceleration_y,angular_acceleration_z,front_wheels_angle,wheel_vert_force_rl,wheel_vert_force_rr,wheel_vert_force_fl,wheel_vert_force_fr
1763360921.5332882,3139107394136596315,0,32.365901947021484,32.4411506652832,53.848182678222656,53.81892776489258,-0.1777549535036087,-0.602843701839447,0.06750188022851944,0.2684497833251953,-8.258722305297852,-28.008888244628906,3.136223554611206,12.472518920898438,0.0,0.0,0.0,0.0,-0.0006986153894104064,-0.0006580555345863104,-0.0007001567864790559,-0.0006561328773386776,0.00045959773706272244,0.0004562497488223016,0.00012209567648824304,0.00012274149048607796,-171.4932403564453,143.2607879638672,-170.42214965820312,134.53775024414062,-102.23822021484375,-122.802978515625,82.8274917602539,64.76624298095703,0.30048370361328125,0.0007298149866983294,-0.0009133818093687296,5.0345603085588664e-05,-0.0015787527663633227,0.0011407090350985527,-0.005508724600076675,-0.07335086911916733,0.052998799830675125,-0.25594237446784973,-0.0,2331.223388671875,2347.771240234375,2195.871337890625,2164.8359375
1763360922.574096,3139107394136596315,21,29.39023780822754,29.49708366394043,53.8458366394043,53.82353210449219,-0.2716854214668274,-0.2698972821235657,0.04827975854277611,0.016316771507263184,-1.2405215501785278,2.9839556217193604,0.9119507670402527,1.11311674118042,0.0,0.0,0.0,0.0,-0.0006484186742454767,-0.0006678876816295087,-0.0006492705433629453,-0.0006673081079497933,0.000366687512723729,0.00036273524165153503,0.00029474071925505996,0.00029585856827907264,-145.84188842773438,134.42410278320312,-160.91058349609375,111.00606536865234,-80.00341796875,-100.83605194091797,103.5037841796875,81.32548522949219,0.30316925048828125,0.001422110479325056,-0.0008648938965052366,0.0006113973213359714,-0.0004487408441491425,0.0009135768632404506,-0.003692398313432932,-0.0007283384329639375,-0.0016913247527554631,-0.001769852708093822,-0.0,2365.847412109375,2384.1611328125,2182.731689453125,2163.67626953125
1763360923.6254907,3139107394136596315,42,29.30841827392578,29.435409545898438,53.84135437011719,53.83177947998047,0.013411044143140316,-0.004135072231292725,0.03084540367126465,-0.02726912312209606,1.629441738128662,-0.442564457654953,2.3871657848358154,-3.8221471309661865,0.0,0.0,0.0,0.0,-0.0006532710394822061,-0.0006344221183098853,-0.0006542753544636071,-0.0006324161658994853,0.0003663147217594087,0.0003624322125688195,0.000210507248993963,0.00021160922187846154,-141.52943420410156,136.62953186035156,-157.1865234375,115.5311508178711,-78.80635070800781,-98.90264892578125,104.6982192993164,85.3168716430664,0.3032188415527344,0.0010515357134863734,-0.0007113410974852741,0.0004394186253193766,-0.00028405082412064075,0.0007530937436968088,-0.003976626321673393,0.0011104186996817589,1.6362171663786285e-05,-0.00040423122118227184,-0.0,2351.487548828125,2374.7138671875,2180.306640625,2168.93017578125
1763360924.6727226,3139107394136596315,63,29.308032989501953,29.43288230895996,53.841304779052734,53.83217239379883,-0.006370245944708586,0.017546115443110466,-0.002235173946246505,0.004023313522338867,-0.3352760672569275,1.8708404302597046,-0.06705521792173386,0.5632638931274414,0.0,0.0,0.0,0.0,-0.0006531589315272868,-0.0006336582009680569,-0.0006541642942465842,-0.0006316282670013607,0.0003653239400591701,0.0003614471643231809,0.00020936140208505094,0.00021046159963589162,-141.43118286132812,136.6405029296875,-157.093505859375,115.65695190429688,-78.79209899902344,-98.78888702392578,104.70589447021484,85.4295883178711,0.3032188415527344,0.0010471397545188665,-0.0007015222799964249,0.0004407817614264786,-0.00030466984026134014,0.0007524106185883284,-0.0039723594672977924,-0.0007700925343669951,0.00018673132581170648,0.0002639740414451808,-0.0,2351.099609375,2374.35888671875,2179.94921875,2169.3857421875
1763360925.7169242,3139107394136596315,84,29.306245803833008,29.43388557434082,53.8410758972168,53.831844329833984,0.0013411043910309672,0.004023313522338867,0.007599591743201017,0.0,0.21457667648792267,-0.06034967303276062,0.9387730956077576,-0.24139879643917084,0.0,0.0,0.0,0.0,-0.0006528689409606159,-0.0006337182130664587,-0.0006538616144098341,-0.0006316915387287736,0.0003658478381112218,0.0003619692288339138,0.0002105056628352031,0.00021160641335882246,-141.46023559570312,136.6417236328125,-157.14576721191406,115.5501480102539,-78.7587890625,-98.8241195678711,104.70645141601562,85.40083312988281,0.3032188415527344,0.0010413224808871746,-0.0007020309567451477,0.0004360259626992047,-0.00027910308563150465,0.000749665719922632,-0.003978620748966932,0.0002078362595057115,-0.00017467884754296392,6.705521809635684e-05,-0.0,2350.790771484375,2374.55078125,2179.9541015625,2169.22314453125
1763360926.7226894,3139107394136596315,104,29.304325103759766,29.432649612426758,53.839778900146484,53.831787109375,-0.0016763805178925395,-0.001564621808938682,-0.00447034789249301,-0.0020116567611694336,-0.1341104358434677,0.3956257998943329,-0.5766748785972595,0.026822075247764587,0.0,0.0,0.0,0.0,-0.0006510827806778252,-0.0006335051148198545,-0.0006520277238450944,-0.0006315102218650281,0.000364805047865957,0.00036092824302613735,0.00021049722272437066,0.0002115973475156352,-141.30340576171875,136.68807983398438,-157.07595825195312,115.49884033203125,-78.57877349853516,-98.77059173583984,104.82719421386719,85.3769760131836,0.3032188415527344,0.0010254289954900742,-0.000699465861544013,0.0004242524446453899,-0.00023486284771934152,0.0007438672473654151,-0.003993986174464226,0.0007037707255221903,-0.0010332964593544602,-0.000506434531416744,-0.0,2350.367431640625,2374.29296875,2179.210205078125,2169.017578125
1763360927.7678142,3139107394136596315,125,29.302831649780273,29.431854248046875,53.838470458984375,53.83234405517578,-0.00022351740335579962,0.0016763805178925395,-0.0020116567611694336,0.010952352546155453,0.5431472659111023,-0.6370245814323425,0.1341104507446289,-0.026822088286280632,0.0,0.0,0.0,0.0,-0.0006489987135864794,-0.000632700277492404,-0.0006499240989796817,-0.0006307502626441419,0.000363005354302004,0.00035914103500545025,0.00021405801817309111,0.00021515577100217342,-141.09251403808594,136.810546875,-156.9105224609375,115.24810028076172,-78.3721694946289,-98.66024017333984,104.1266098022461,85.45364379882812,0.3032188415527344,0.0010408663656562567,-0.0007026138482615352,0.00042813399340957403,-0.00022106706455815583,0.0007624413119629025,-0.003991604782640934,-0.0003478620492387563,-0.00020612495427485555,0.0001333840045845136,-0.0,2350.10791015625,2374.17919921875,2178.296875,2169.277099609375
1763360928.7729514,3139107394136596315,145,29.300859451293945,29.431659698486328,53.83793640136719,53.832061767578125,-0.012628733180463314,0.013187526725232601,0.010505317710340023,-0.006482004653662443,0.10058283060789108,1.1131166219711304,-0.1475214809179306,-0.1475214660167694,0.0,0.0,0.0,0.0,-0.0006480616284534335,-0.0006313903722912073,-0.0006489930674433708,-0.0006294386694207788,0.0003619971394073218,0.00035814059083350003,0.00021143435151316226,0.00021252990700304508,-140.9359130859375,136.93453979492188,-156.72036743164062,115.40267181396484,-78.26009368896484,-98.54971313476562,104.22366333007812,85.5563735961914,0.3032188415527344,0.001029713312163949,-0.000702417513821274,0.0004164880374446511,-0.0001830360561143607,0.0007625537691637874,-0.004006643779575825,-0.00019491415878292173,0.0002557388215791434,8.862464892445132e-05,-0.0,2349.56884765625,2374.36669921875,2177.8408203125,2169.08837890625
1763360929.8239582,3139107394136596315,166,32.533287048339844,35.619659423828125,53.25918197631836,53.32920455932617,-6.737548351287842,7.475839614868164,-1.1262484788894653,0.10999323427677155,-369.8341369628906,331.3253479003906,-230.39413452148438,232.1786346435547,29.559499740600586,28.953655242919922,7.443153381347656,7.852205276489258,2.8627166748046875,2.6306965351104736,-0.0018491982482373714,-0.0017882344545796514,-0.03548485040664673,-0.04019370302557945,-0.002203274518251419,-0.01698543317615986,22.801607131958008,314.452392578125,132.65084838867188,1749.3275146484375,3793.49462890625,4568.50048828125,-204.5223846435547,209.59967041015625,0.3008460998535156,0.1852264106273651,0.03592914342880249,7.6333770751953125,0.02415543794631958,0.30007436871528625,-0.013735109008848667,0.492396742105484,2.2641780376434326,-0.22380749881267548,-0.10130764544010162,2461.49609375,3099.830810546875,1690.6082763671875,1894.486572265625
1763360930.8288937,3139107394136596315,186,29.41706085205078,28.987239837646484,53.798519134521484,53.946815490722656,-0.32063570618629456,0.33929941058158875,-0.33058223128318787,-0.37729737162590027,-0.5900859236717224,118.4061050415039,21.538135528564453,1.5690921545028687,11.66797924041748,11.667656898498535,11.713716506958008,11.71401596069336,-0.0038687943015247583,-0.003916054964065552,6.275765190366656e-05,6.225476681720465e-05,0.0027890659403055906,-0.0026565995067358017,-0.0006528703961521387,0.0009227421251125634,-503.0494689941406,478.3922424316406,-71.3792495727539,47.39005661010742,-484.4073181152344,-480.9242858886719,8.46281623840332,8.599074363708496,0.3040809631347656,0.0007438464090228081,0.07456016540527344,11.713521003723145,-0.0005890210741199553,0.00040261849062517285,0.006850861944258213,-0.07115786522626877,-0.002105572260916233,0.0013931280700489879,-0.0,2509.35693359375,2432.50146484375,2145.21728515625,2224.201904296875
1763360931.8744643,3139107394136596315,207,30.875852584838867,28.659467697143555,53.47801971435547,54.39330291748047,0.5658342838287354,27.252695083618164,8.978917121887207,0.11980532854795456,118.34574890136719,-126.3789291381836,243.90663146972656,-452.0728759765625,10.78199291229248,10.783705711364746,10.781295776367188,10.785683631896973,-6.731149915140122e-05,-8.340192289324477e-05,-1.359552607027581e-05,-9.116900037042797e-05,0.0028685112483799458,-0.002649105852469802,-0.00028381834272295237,0.0012864972231909633,-556.23876953125,482.4195861816406,-103.34406280517578,24.75067138671875,-9.050375938415527,-10.297999382019043,-1.77830970287323,-13.492525100708008,0.2999839782714844,0.0006929906085133553,0.08282166719436646,10.778768539428711,-0.029639270156621933,0.0016589254373684525,-0.009662354364991188,-0.7981356382369995,0.024866633117198944,0.36484745144844055,-0.0,2821.94921875,2454.23095703125,2043.462890625,2507.298095703125
1763360932.9291847,3139107394136596315,228,29.797840118408203,29.321983337402344,53.810787200927734,53.92838668823242,-4.533491611480713,1.4183297157287598,0.2997368276119232,2.855881929397583,-735.233642578125,179.2453155517578,-51.900733947753906,125.37984466552734,10.520456314086914,10.52063274383545,10.522128105163574,10.520719528198242,-7.920168718555942e-05,-6.398143159458414e-05,3.48712237610016e-05,-4.460552372620441e-05,0.0029978668317198753,-0.002534739440307021,-0.00044873953447677195,0.0011147487675771117,-534.8612060546875,459.56951904296875,-90.89888000488281,27.17576026916504,-9.964934349060059,-7.8552045822143555,-4.7029008865356445,-6.138582706451416,0.3042259216308594,0.002669021487236023,0.06850981712341309,10.517593383789062,0.0014690231764689088,0.0005494155921041965,0.005624470300972462,-0.08746743947267532,0.017180049791932106,0.21249167621135712,-0.0,2505.609375,2423.076904296875,2165.00146484375,2234.7060546875
1763360933.9698668,3139107394136596315,249,29.154359817504883,28.8784236907959,54.80453109741211,54.84080123901367,-6.404555797576904,-4.9207353591918945,1.4092772006988525,2.8941032886505127,143.6792755126953,211.53916931152344,-36.786502838134766,152.30921936035156,0.0,0.0,-3.139022908271727e-08,0.0,-0.9045979380607605,-0.9048967957496643,-0.90459805727005,-0.9048997163772583,0.005643058102577925,0.0007937647751532495,0.003989128861576319,0.0056707002222537994,-20.16598892211914,-2.7812187671661377,-19.87318229675293,-27.811765670776367,-3217.01025390625,-3153.3974609375,-4471.68701171875,-4492.697265625,0.3042144775390625,0.027747664600610733,0.049729123711586,6.065878868103027,0.0011144123272970319,0.003012490924447775,-0.000526237883605063,0.030281586572527885,-0.011919107288122177,0.07422474026679993,-0.0,1746.295654296875,1708.776123046875,2778.09814453125,2795.14453125
1763360934.971357,3139107394136596315,269,26.756898880004883,31.985748291015625,54.619964599609375,53.044830322265625,0.7621943354606628,-0.8556246161460876,-6.402656078338623,2.4092941284179688,122.38248443603516,-87.25225067138672,-125.8089828491211,61.2080078125,0.0,0.0,0.0,0.0,0.0012481488520279527,0.00111655134242028,0.000732609536498785,0.000544430804438889,0.0013408365193754435,0.0013516317121684551,0.0018691102741286159,0.0018738243961706758,-601.88525390625,412.2778625488281,451.5544128417969,-267.5742492675781,-236.6393585205078,-407.0950927734375,642.1976318359375,-336.4429626464844,0.3054466247558594,0.0036554725375026464,-0.0019264977890998125,-0.0027780449017882347,-0.002499771537259221,-0.0008569728233851492,0.0022663651034235954,-0.05924538895487785,-0.05079885944724083,0.10490856319665909,-0.2809261381626129,1926.50830078125,2859.229248046875,2453.759521484375,1697.839599609375
1763360935.9792845,3139107394136596315,289,29.50881004333496,29.245403289794922,53.76262664794922,53.81898880004883,2.0863115787506104,-2.360790729522705,1.070648431777954,-0.7476657032966614,-0.6236171126365662,-36.612144470214844,-6.987146854400635,65.28496551513672,0.0,0.0,0.0,0.0,0.0006455808179453015,0.0007930923602543771,0.0006415595416910946,0.0007965731783770025,0.0002661829348653555,0.0002705564256757498,2.4681752620381303e-05,2.3453631001757458e-05,-611.0327758789062,502.8081970214844,174.86753845214844,-256.76708984375,-309.1865539550781,-324.010498046875,194.35252380371094,-10.156118392944336,0.30457305908203125,0.001300507108680904,-0.001313605927862227,0.00024028558982536197,-0.0004255757376085967,0.0014869620790705085,5.343019438441843e-05,0.18674713373184204,-0.010812954977154732,-0.13014031946659088,5.62507520953659e-05,2438.796630859375,2363.530029296875,2098.46875,2104.075927734375
1763360937.0262923,3139107394136596315,310,29.205705642700195,29.57843780517578,53.63105010986328,53.93964767456055,3.3034753799438477,-3.5492329597473145,0.275149941444397,0.3732740581035614,-97.49158477783203,78.79656982421875,30.469892501831055,10.353324890136719,0.0,0.0,0.0,0.0,0.0007598681841045618,0.0006860115099698305,0.0007575731724500656,0.0006811837083660066,1.6070700439740904e-05,2.0277393559808843e-05,0.00035447129630483687,0.00035408721305429935,-627.8059692382812,508.39508056640625,136.1746063232422,-240.19854736328125,-283.6094055175781,-316.9436950683594,24.648412704467773,176.1492156982422,0.3045539855957031,0.00171476521063596,-0.0009387820609845221,2.6230169169139117e-05,0.0042578065767884254,0.0002840847009792924,-0.002457892056554556,-0.0847015306353569,0.04538276791572571,0.05743774399161339,-0.005593175068497658,2398.33642578125,2422.8447265625,2012.0531005859375,2195.828369140625
1763360938.0327752,3139107394136596315,330,27.373619079589844,31.2817440032959,54.66135787963867,53.16205596923828,-4.102550506591797,3.666914701461792,1.1014938354492188,-1.172125220298767,3.681335210800171,-4.9352641105651855,-4.613391876220703,-0.6973742842674255,0.0,0.0,0.0,0.0,0.0005457034567371011,0.000743896933272481,0.0003973235434386879,0.0005923360004089773,0.0011831814190372825,0.0011798794148489833,0.0007446625968441367,0.0007889160187914968,-623.9906005859375,404.4611511230469,273.7497253417969,-90.2735824584961,-212.99781799316406,-332.5913391113281,721.321044921875,-418.4740295410156,0.305023193359375,0.0026339488103985786,0.0006938204751349986,-0.002242440590634942,-0.0010225374717265368,1.1060476936108898e-05,-0.0009011682122945786,-0.003599782707169652,0.00013954918540548533,0.003966354764997959,-0.23167993128299713,2021.16845703125,2756.180419921875,2593.177490234375,1772.9072265625
1763360939.072858,3139107394136596315,351,29.524791717529297,29.235273361206055,53.80320358276367,53.82417297363281,-2.6168298721313477,-0.22273509204387665,-0.3448873460292816,0.8274614214897156,-53.58381652832031,-19.07050323486328,-6.021557331085205,-7.791816711425781,0.0,0.0,0.0,0.0,0.00065657525556162,9.317518561147153e-05,0.0006660414510406554,7.58315873099491e-05,-0.0005256670992821455,-0.0005230791284702718,0.0009439942659810185,0.0009432992665097117,-503.393310546875,546.723388671875,-38.8338508605957,-196.00657653808594,-199.97288513183594,-299.24755859375,-444.13629150390625,563.52001953125,0.3045196533203125,0.002612159587442875,-0.0011274167336523533,0.0002069150796160102,0.00015765734133310616,0.00022004405036568642,-0.0025535926688462496,-0.1677769273519516,0.038465745747089386,0.0846715047955513,-1.4895047570462339e-05,2425.013671875,2363.63037109375,2123.437255859375,2146.7568359375
1763360940.0754287,3139107394136596315,371,29.248645782470703,29.01468849182129,53.77314376831055,53.860450744628906,1.4848260879516602,-0.7513537406921387,0.6553530097007751,-0.5234777927398682,48.353515625,44.504547119140625,-25.09206771850586,-10.943413734436035,0.0,0.0,0.0,0.0,0.0004923375090584159,0.00023195979883894324,0.0004990578745491803,0.00022537162294611335,-0.00027809443417936563,-0.00027580666937865317,0.0003190611896570772,0.0003184127854183316,-472.4701232910156,588.4009399414062,-61.924991607666016,-225.25027465820312,-186.32762145996094,-316.8861083984375,-456.2895812988281,571.4290161132812,0.3047027587890625,-0.00026243465254083276,0.0006174686714075506,0.00030120977316983044,0.00493682362139225,0.0004769585793837905,-0.004628374241292477,0.3226238787174225,-0.04775897040963173,-0.19098450243473053,-0.0,2386.023193359375,2338.231201171875,2116.410400390625,2151.4150390625
1763360941.1194468,3139107394136596315,392,29.16602325439453,28.898399353027344,53.80488967895508,53.884525299072266,-0.18697230517864227,-0.12394040822982788,0.053197141736745834,0.09521841257810593,-1.153349757194519,-7.986277103424072,5.619226932525635,1.1801718473434448,0.0,0.0,0.0,0.0,0.0004304650938138366,0.0003052489773835987,0.0004335950070526451,0.00030190913821570575,-0.0001102361929952167,-0.00010793474211823195,6.903539906488732e-05,6.836807006038725e-05,-460.0846862792969,594.8568115234375,-73.72518920898438,-239.1039581298828,-179.8500518798828,-321.25537109375,-456.985595703125,569.2623901367188,0.30474853515625,0.00013449217658489943,0.00018969469238072634,0.00035671787918545306,0.00018978002481162548,0.0014067834708839655,-0.0036958535201847553,-0.01696903444826603,0.003050761064514518,0.011754137463867664,-0.0,2359.3701171875,2312.770263671875,2139.884521484375,2171.262939453125
1763360942.1802533,3139107394136596315,413,29.126251220703125,28.885454177856445,53.81025695800781,53.91088104248047,-0.05241483077406883,0.07923691719770432,-0.05297362431883812,0.054091211408376694,0.2682209014892578,-0.4559755027294159,-2.413987874984741,2.0250678062438965,0.0,0.0,0.0,0.0,0.0004247506440151483,0.00040512654231861234,0.00042586150811985135,0.00040489816456101835,4.190264462522464e-06,6.717802989442134e-06,-0.00012172639981145039,-0.00012246314145158976,-455.8271789550781,594.801025390625,-78.41743469238281,-243.093017578125,-171.54940795898438,-316.83404541015625,-451.3892517089844,569.5640258789062,0.30474853515625,3.9742979424772784e-05,-0.00023990620684344321,-1.9412949768593535e-05,0.001125891925767064,0.0014137336984276772,-0.0046020252630114555,-0.0024373175110667944,0.0016635701758787036,0.0015312059549614787,-0.0,2351.955322265625,2314.33935546875,2145.0517578125,2187.61767578125
1763360943.219152,3139107394136596315,435,29.11144256591797,28.92429542541504,53.79074478149414,53.92098617553711,-0.058002766221761703,0.13265758752822876,-0.06414949893951416,0.02123415283858776,-10.970233917236328,7.691234111785889,-8.07344913482666,7.335840702056885,0.0,0.0,0.0,0.0,0.0004116482159588486,0.00044905635877512395,0.0004114857583772391,0.0004503381787799299,4.046293179271743e-05,4.3091291445307434e-05,-0.00020335271256044507,-0.00020411204604897648,-459.0758972167969,590.8733520507812,-71.68219757080078,-236.80372619628906,-172.51889038085938,-312.3614501953125,-450.521484375,573.2344360351562,0.30474853515625,-0.00018424216250423342,-0.0004867894749622792,-0.00015873712254688144,0.002309829695150256,0.0008634241530671716,-0.005141299683600664,0.000904267595615238,2.7789499654318206e-05,-0.006052096839994192,-0.0,2349.871826171875,2322.30419921875,2131.935302734375,2193.4677734375
1763360944.2304473,3139107394136596315,455,29.128726959228516,28.931970596313477,53.79170227050781,53.91508102416992,-0.49117952585220337,0.19971279799938202,-0.17188487946987152,0.3021955192089081,-16.106664657592773,-23.58331871032715,3.889202833175659,6.33001184463501,0.0,0.0,0.0,0.0,0.000417279836256057,0.0004403700295370072,0.0004169786407146603,0.00044074314064346254,2.174386736442102e-06,4.787217221746687e-06,-0.00016680717817507684,-0.00016756773402448744,-456.8882751464844,595.6368408203125,-71.95552062988281,-236.94432067871094,-172.95982360839844,-313.2121887207031,-451.13446044921875,575.2908325195312,0.3047332763671875,0.000258995802141726,-0.00017321314953733236,7.747278868919238e-05,0.0010787888895720243,0.001624590833671391,-0.004340676125138998,-0.08846955746412277,0.04418594017624855,0.06391549855470657,-0.0,2350.525146484375,2323.06494140625,2132.22900390625,2191.7099609375
1763360945.2806542,3139107394136596315,476,29.134153366088867,28.89055824279785,53.814205169677734,53.91581344604492,-0.020116565749049187,0.013299285434186459,-0.021904705092310905,-0.004246830940246582,0.2682209014892578,-0.8717178106307983,-1.0192393064498901,-0.6169080138206482,0.0,0.0,0.0,0.0,0.00042304833186790347,0.00042962381849065423,0.00042355863843113184,0.0004300612199585885,3.379591726115905e-05,3.637758345576003e-05,-0.0001670533965807408,-0.00016780479927547276,-452.9957275390625,596.1012573242188,-79.94856262207031,-243.86087036132812,-169.5458984375,-315.93157958984375,-450.07586669921875,568.0440063476562,0.3047294616699219,-4.002357309218496e-05,-0.00036068304325453937,-8.541889837943017e-05,0.001024550525471568,0.0014465348795056343,-0.004585700109601021,0.003272836096584797,-0.0007199844694696367,-0.0019367783097550273,-0.0,2353.238037109375,2315.735107421875,2148.235107421875,2190.396240234375
1763360947.2743134,3139107394136596315,493,29.12510108947754,28.903974533081055,53.80694580078125,53.92068862915039,0.01609325408935547,-0.006146728526800871,0.012516974471509457,-0.026375053450465202,1.3276933431625366,-1.3276933431625366,1.6763805150985718,-2.896785259246826,0.0,0.0,0.0,0.0,0.0004153517947997898,0.00044018664630129933,0.0004153942863922566,0.0004410553665366024,4.6917321014916524e-05,4.949927460984327e-05,-0.00018274034664500505,-0.00018348870798945427,-454.0822448730469,595.1009521484375,-78.69811248779297,-242.772705078125,-170.11973571777344,-315.1870422363281,-450.09716796875,569.1666870117188,0.3047294616699219,-6.008419950376265e-05,-0.0005061347619630396,-0.00010162284888792783,0.0013772507663816214,0.0013077212497591972,-0.004746883176267147,-0.00012882983719464391,-0.000250779528869316,0.0010727158514782786,-0.0,2351.6650390625,2318.478271484375,2143.94677734375,2193.0400390625
1763360948.283312,3139107394136596315,513,29.119735717773438,28.908573150634766,53.80162811279297,53.92268753051758,-0.06470829248428345,0.03520398959517479,-0.021904705092310905,0.019669530913233757,-6.323307514190674,3.118067502975464,-0.8046625256538391,0.9924171566963196,0.0,0.0,0.0,0.0,0.0004111893940716982,0.000448021077318117,0.0004109207075089216,0.0004491327563300729,4.662966603063978e-05,4.9231912271352485e-05,-0.00020563992438837886,-0.00020639198191929609,-455.636962890625,594.4050903320312,-76.49543762207031,-239.8295440673828,-171.41282653808594,-313.0738525390625,-450.4595642089844,571.3515625,0.3047294616699219,-0.00012706316192634404,-0.0005196838756091893,-0.00012398821127135307,0.0017258359584957361,0.0011453557526692748,-0.004949048161506653,-0.00040146519313566387,0.0011409794678911567,-0.0004917103215120733,-0.0,2350.322265625,2319.7646484375,2140.06005859375,2194.732177734375
1763360949.3370295,3139107394136596315,534,29.120105743408203,28.91299057006836,53.79948043823242,53.9203987121582,-0.07286667078733444,0.043697651475667953,-0.03218650817871094,0.06034969910979271,-1.4148650169372559,-1.0125339031219482,0.5364415645599365,3.138184070587158,0.0,0.0,0.0,0.0,0.0004123080871067941,0.0004381637554615736,0.0004122479003854096,0.00043900939635932446,4.403770071803592e-05,4.661558341467753e-05,-0.00017716854927130044,-0.0001779151934897527,-455.2919921875,593.0962524414062,-76.58904266357422,-240.5463104248047,-171.2728729248047,-314.95269775390625,-450.37518310546875,571.6796264648438,0.3047294616699219,-1.783055267878808e-05,-0.0004809727251995355,-8.16572573967278e-05,0.001653728075325489,0.0012311956379562616,-0.004849772900342941,-0.008923051878809929,0.004345639143139124,0.004959906917065382,-0.0,2350.77783203125,2319.569091796875,2138.71923828125,2193.263671875
1763360950.378455,3139107394136596315,555,29.112316131591797,28.9193172454834,53.795318603515625,53.9233512878418,0.008158385753631592,0.00782310962677002,-0.00447034789249301,-0.009387730620801449,-2.0250675678253174,2.4475154876708984,-0.8717177510261536,0.9521841406822205,0.0,0.0,0.0,0.0,0.0004116788040846586,0.0004436650488059968,0.00041153296479023993,0.0004447059764061123,4.324137989897281e-05,4.5814362238161266e-05,-0.0001738338905852288,-0.00017457098874729127,-457.29052734375,592.5230102539062,-74.36677551269531,-240.9833984375,-171.40481567382812,-313.07977294921875,-450.6619873046875,572.6781005859375,0.3047294616699219,-5.835229603690095e-05,-0.0005561324651353061,-0.00011187751078978181,0.0018833049107342958,0.001063331263139844,-0.004906724207103252,0.0008437991491518915,-0.0009315786301158369,0.0007190275355242193,-0.0,2349.944091796875,2321.427734375,2136.070068359375,2194.3828125
1763360951.4264822,3139107394136596315,576,29.114421844482422,28.918344497680664,53.79217529296875,53.92048645019531,0.12796372175216675,-0.15344469249248505,0.03956257924437523,0.012293457053601742,28.116252899169922,-16.42182159423828,9.562073707580566,-10.621545791625977,0.0,0.0,0.0,0.0,0.0004173356282990426,0.0004225471639074385,0.00041762724868021905,0.00042277219472453,2.8567606932483613e-05,3.1047915399540216e-05,-9.049547952599823e-05,-9.120452887145802e-05,-457.7291564941406,594.7675170898438,-79.93329620361328,-247.1663055419922,-171.99575805664062,-315.33697509765625,-451.5843200683594,570.9470825195312,0.3047294616699219,0.00021265163377393037,-0.0005852512549608946,2.4874207156244665e-05,0.0009862745646387339,0.0014594243839383125,-0.004239242058247328,-0.03631909191608429,0.0034474486019462347,0.028664933517575264,-0.0,2351.405029296875,2320.275390625,2135.06884765625,2190.89501953125
1763360952.4880333,3139107394136596315,597,29.127538681030273,28.923973083496094,53.79473114013672,53.9176025390625,0.09119509905576706,-0.23458151519298553,0.0616908073425293,0.018328426405787468,32.50166320800781,-29.356775283813477,16.17371940612793,-13.46468734741211,0.0,0.0,0.0,0.0,0.00042314486927352846,0.00040972934220917523,0.0004237419634591788,0.00040936676668934524,8.844895091897342e-06,1.1292238923488185e-05,-5.3056053729960695e-05,-5.375492401071824e-05,-455.8851318359375,594.91259765625,-82.22506713867188,-247.99343872070312,-171.52610778808594,-316.8179016113281,-452.2843322753906,570.0744018554688,0.304718017578125,0.00027517633861862123,-0.0005088449688628316,9.21402097446844e-05,-1.9944454834330827e-06,0.0017287166556343436,-0.0035816775634884834,-0.07711468636989594,0.011730605736374855,0.05945347622036934,-0.0,2353.321044921875,2320.0283203125,2137.0869140625,2188.919677734375
1763360953.535155,3139107394136596315,618,29.120895385742188,28.907691955566406,53.802616119384766,53.92028045654297,0.002235173946246505,0.018775461241602898,0.003352761035785079,-0.0006705521955154836,1.9982455968856812,-1.6964969635009766,0.10728834569454193,-0.4559754729270935,0.0,0.0,0.0,0.0,0.0004153262125328183,0.0004354311968199909,0.00041547566070221364,0.00043619360076263547,4.039588384330273e-05,4.2966737964889035e-05,-0.0001705395698081702,-0.00017128308536484838,-454.5439453125,593.0609741210938,-77.02469635009766,-242.21142578125,-170.86769104003906,-314.95587158203125,-449.892822265625,569.7537231445312,0.304718017578125,-4.0991453715832904e-05,-0.0004996442585252225,-9.307346772402525e-05,0.001562671852298081,0.0012311837635934353,-0.0048128352500498295,0.001323006465099752,-0.0009080115123651922,-0.0008112284704111516,-0.0,2351.16650390625,2318.763916015625,2140.922607421875,2192.836181640625
1763360954.539358,3139107394136596315,638,29.117446899414062,28.9150390625,53.79736328125,53.92083740234375,0.006705522071570158,0.0003352760977577418,-0.0029057261999696493,0.003576278453692794,0.11399387568235397,-0.013411042280495167,-0.05364416167140007,0.9924171566963196,0.0,0.0,0.0,0.0,0.0004144547856412828,0.00043481821194291115,0.00041453802259638906,0.0004355551500339061,4.222074494464323e-05,4.478092159843072e-05,-0.00015959417214617133,-0.0001603317796252668,-456.3164978027344,592.663330078125,-77.28279113769531,-241.6468505859375,-171.89141845703125,-314.361328125,-450.3211364746094,570.9546508789062,0.304718017578125,-1.4039274901733734e-05,-0.0005424548289738595,-9.044345642905682e-05,0.0017385263927280903,0.001165997702628374,-0.004842878319323063,0.000399188109440729,-0.002040168968960643,-4.4787298975279555e-05,-0.0,2350.50341796875,2320.318115234375,2137.530029296875,2192.8330078125
1763360956.2240274,3139107394136596315,654,29.119781494140625,28.91568374633789,53.79594421386719,53.91765594482422,0.06705522537231445,0.014640389941632748,0.030174849554896355,-0.03285706043243408,4.338472843170166,4.861503601074219,3.138184070587158,-3.0845401287078857,0.0,0.0,0.0,0.0,0.0004121131496503949,0.0004250017227604985,0.000412385183153674,0.00042562116868793964,4.277348125469871e-05,4.531245576799847e-05,-0.0001499764184700325,-0.00015070653171278536,-457.1420593261719,592.455810546875,-77.51715087890625,-240.60340881347656,-171.33238220214844,-314.5751037597656,-451.20318603515625,570.4680786132812,0.304718017578125,-1.782406798156444e-05,-0.000514802522957325,-9.291720925830305e-05,0.0019482162315398455,0.0010987124405801296,-0.004925289656966925,0.020090624690055847,-0.010519497096538544,-0.013101193122565746,-0.0,2351.87353515625,2320.57421875,2136.52880859375,2190.798828125
1763360957.225362,3139107394136596315,674,29.10988998413086,28.927875518798828,53.78990936279297,53.921077728271484,-0.30957159399986267,0.22016464173793793,-0.15556810796260834,0.14416871964931488,-15.664097785949707,4.110485076904297,-7.255373954772949,10.87635612487793,0.0,0.0,0.0,0.0,0.00040762778371572495,0.0004726079641841352,0.00040673447074368596,0.0004743682511616498,4.2544772441033274e-05,4.526333214016631e-05,-0.00027833692729473114,-0.00027912776567973197,-458.00140380859375,589.722900390625,-66.00963592529297,-232.4347381591797,-172.3546600341797,-310.4027099609375,-448.7799987792969,573.2520141601562,0.304718017578125,-0.0002488771569915116,-0.00047531918971799314,-0.00016373964899685234,0.002248863922432065,0.0009281422826461494,-0.005252358503639698,-0.02209267020225525,0.02060776762664318,0.0015995464054867625,-0.0,2348.264404296875,2322.87109375,2130.36328125,2194.432861328125
1763360958.2893422,3139107394136596315,695,29.131620407104492,28.90185546875,53.80694580078125,53.91294860839844,-0.04772096499800682,-0.0043585896492004395,0.009387730620801449,0.03196299076080322,-6.9066877365112305,4.231184005737305,-2.7090306282043457,3.6209819316864014,0.0,0.0,0.0,0.0,0.00041986521682702005,0.00041280873119831085,0.0004205809673294425,0.00041286490159109235,2.860708991647698e-05,3.115484651061706e-05,-0.0001405630464432761,-0.0001413011777913198,-455.6167907714844,593.4738159179688,-78.75955200195312,-242.49549865722656,-170.6313934326172,-315.92669677734375,-450.43487548828125,567.6712036132812,0.3047065734863281,1.534882903797552e-05,-0.0003773327043745667,-5.1579329010564834e-05,0.0014760822523385286,0.001321385963819921,-0.0047668456099927425,0.01215407345443964,-0.0026606463361531496,-0.008403918705880642,-0.0,2352.83447265625,2317.30712890625,2143.6044921875,2188.650146484375
1763360959.32828,3139107394136596315,716,29.120649337768555,28.91234016418457,53.79998016357422,53.92008590698242,-0.012852250598371029,0.02212822251021862,-0.023692844435572624,0.026822088286280632,0.8717178106307983,0.5297362208366394,-1.166760802268982,2.2262332439422607,0.0,0.0,0.0,0.0,0.0004118963552173227,0.00043640119838528335,0.0004119141958653927,0.00043727506999857724,4.60470218968112e-05,4.861857451032847e-05,-0.00017438472423236817,-0.00017512886552140117,-454.9920654296875,592.3016357421875,-76.64784240722656,-240.1522216796875,-171.11395263671875,-314.7684020996094,-449.5925598144531,570.1342163085938,0.3047065734863281,-2.7476031391415745e-05,-0.0004805005737580359,-8.530453487765044e-05,0.0016639229143038392,0.001210214220918715,-0.004852178506553173,-0.0039351144805550575,0.0024102649185806513,0.0014281085459515452,-0.0,2351.24169921875,2319.51513671875,2138.975830078125,2192.89990234375
1763360960.3874242,3139107394136596315,737,29.112314224243164,28.92101287841797,53.79450225830078,53.92304992675781,0.032298266887664795,0.009052454493939877,-0.01363456156104803,-0.013858078978955746,-0.99241703748703,0.20787115395069122,-1.5288589000701904,1.4752146005630493,0.0,0.0,0.0,0.0,0.00041048205457627773,0.0004474717134144157,0.00041023490484803915,0.00044864503433927894,4.3363033910281956e-05,4.5951423089718446e-05,-0.0001853064022725448,-0.0001860489574028179,-456.761962890625,591.9928588867188,-74.84674835205078,-238.02137756347656,-171.29568481445312,-312.4818420410156,-450.39093017578125,572.5194702148438,0.3047065734863281,-7.615573122166097e-05,-0.0005341989453881979,-0.00011789512063842267,0.001974396873265505,0.0010362773900851607,-0.004964437801390886,-0.00031398606370203197,0.0018238810589537024,0.0005843303515575826,-0.0,2350.087890625,2321.7470703125,2135.21484375,2194.74853515625
1763360961.4261284,3139107394136596315,758,29.120399475097656,28.917753219604492,53.795127868652344,53.91673278808594,0.20485369861125946,-0.0834837481379509,0.09767710417509079,-0.11019407957792282,-3.426522731781006,7.530301570892334,-3.889202356338501,2.2262330055236816,0.0,0.0,0.0,0.0,0.0004143014666624367,0.00042090710485354066,0.00041482405504211783,0.0004215138906147331,4.4192482164362445e-05,4.672348950407468e-05,-0.0001345596683677286,-0.00013528598356060684,-458.7663269042969,591.8919677734375,-76.56812286376953,-241.5421600341797,-172.0641326904297,-314.6874084472656,-450.3587951660156,569.6673583984375,0.3047065734863281,-0.00015651625290047377,-0.0005115626263432205,-0.00015105349302757531,0.00239864201284945,0.0007924620294943452,-0.005070808809250593,0.049544595181941986,-0.02479998953640461,-0.028993001207709312,-0.0,2352.615234375,2320.656982421875,2136.004638671875,2189.9892578125
1763360962.430718,3139107394136596315,778,29.139209747314453,28.919340133666992,53.7990608215332,53.910675048828125,-0.3993138372898102,0.3905966579914093,-0.31806525588035583,0.20094214379787445,-49.218528747558594,34.506614685058594,-34.02381896972656,25.615093231201172,0.0,0.0,0.0,0.0,0.00041399526526220143,0.00043123980867676437,0.0004142861580476165,0.00043206484406255186,4.7825935325818136e-05,5.0491908041294664e-05,-0.00021291774464771152,-0.00021369874593801796,-458.8260192871094,588.9030151367188,-70.77371978759766,-234.7315673828125,-171.94921875,-313.69158935546875,-448.8442077636719,568.3369140625,0.30469512939453125,-0.00014972334611229599,-0.00022832861577626318,-0.00010430950351292267,0.002211119746789336,0.0010559676447883248,-0.005262788850814104,-0.017387544736266136,0.010254552587866783,-0.010590282268822193,-0.0,2352.9375,2322.204833984375,2135.11962890625,2188.369140625
1763360963.4866035,3139107394136596315,799,29.121671676635742,28.90869140625,53.80279541015625,53.91961669921875,-0.018998978659510612,0.017546115443110466,-0.0037997958716005087,-0.012516974471509457,-3.5673372745513916,2.5078651905059814,-0.6169080138206482,0.20116572082042694,0.0,0.0,0.0,0.0,0.0004142710822634399,0.0004357229918241501,0.00041438211337663233,0.00043652523891068995,4.321888627600856e-05,4.5794109610142186e-05,-0.00017487195145804435,-0.00017561674758326262,-454.2475891113281,591.8401489257812,-76.56562805175781,-241.30787658691406,-170.73110961914062,-314.4146423339844,-449.09747314453125,568.4196166992188,0.30469512939453125,-6.3256302382797e-05,-0.00048719978076405823,-9.94371876004152e-05,0.001667521079070866,0.0011891834437847137,-0.004877844359725714,0.005780537147074938,-0.0019325524335727096,-0.004125767853111029,-0.0,2351.056640625,2318.859130859375,2140.79833984375,2192.447998046875
1763360964.5372987,3139107394136596315,820,29.117172241210938,28.915813446044922,53.796730041503906,53.92062759399414,0.0,0.0,0.0,0.0,0.05364416912198067,0.27492639422416687,-1.3142822980880737,-0.6437300443649292,0.0,0.0,0.0,0.0,0.0004128788423258811,0.0004370772803667933,0.0004128840228077024,0.00043792114593088627,4.330559022491798e-05,4.587498551700264e-05,-0.00016854774730745703,-0.00016928851255215704,-455.9446716308594,591.5090942382812,-76.4445571899414,-240.39517211914062,-171.839599609375,-313.6056823730469,-449.28057861328125,569.7697143554688,0.30469512939453125,-3.1749645131640136e-05,-0.0005340238567441702,-9.7531323262956e-05,0.001810890156775713,0.0011404227698221803,-0.004891848191618919,0.0014263762859627604,-0.0005921185365878046,-0.0008958018734119833,-0.0,2350.653076171875,2320.223876953125,2136.90771484375,2192.7890625
1763360965.5752697,3139107394136596315,841,29.114381790161133,28.919404983520508,53.793373107910156,53.92034912109375,0.07163732498884201,-0.10728835314512253,0.0406801663339138,-0.015199183486402035,12.686845779418945,-10.319798469543457,5.538760662078857,-5.914269924163818,0.0,0.0,0.0,0.0,0.00041207412141375244,0.00042739909258671105,0.00041218523983843625,0.0004279524437151849,3.962712798966095e-05,4.2133513488806784e-05,-0.0001293189125135541,-0.00013003665662836283,-455.89556884765625,591.7766723632812,-78.85147857666016,-243.27757263183594,-170.97586059570312,-313.85382080078125,-450.5200500488281,568.9722290039062,0.30469512939453125,9.565446089254692e-05,-0.0005957026151008904,-4.980398443876766e-05,0.0015506085474044085,0.0012679353822022676,-0.004656064324080944,-0.008194021880626678,-0.0008123530424199998,0.007443213369697332,-0.0,2350.63134765625,2320.230712890625,2135.54931640625,2191.320068359375
1763360966.584112,3139107394136596315,861,29.11921501159668,28.923187255859375,53.79108810424805,53.9163818359375,0.31728294491767883,-0.14171002805233002,0.13813376426696777,-0.21167097985744476,3.386286973953247,4.056840896606445,2.574920892715454,-6.115435600280762,0.0,0.0,0.0,0.0,0.00041287520434707403,0.00041683961171656847,0.0004134764603804797,0.0004174151108600199,4.243139846948907e-05,4.492351217777468e-05,-0.00011998230183962733,-0.0001206918532261625,-458.19677734375,589.2792358398438,-77.02833557128906,-241.6863555908203,-172.02635192871094,-314.8623046875,-450.5048828125,567.4945678710938,0.30469512939453125,-7.707392796874046e-05,-0.0006257786299102008,-0.00014088439638726413,0.002349486341699958,0.0008483066922053695,-0.004981004633009434,0.05485011637210846,-0.02313850075006485,-0.033114828169345856,-0.0,2353.281005859375,2320.8955078125,2133.61572265625,2188.078369140625
1763360967.6252613,3139107394136596315,882,29.13018226623535,28.901649475097656,53.80618667602539,53.914363861083984,0.037103887647390366,-0.008158385753631592,0.012516974471509457,-0.02168118767440319,-1.3612209558486938,2.4810431003570557,-0.21457676589488983,-0.3218649625778198,0.0,0.0,0.0,0.0,0.00041767494985833764,0.0004148516454733908,0.00041833840077742934,0.00041508639696985483,3.4938329918077216e-05,3.745706271729432e-05,-0.00013221467088442296,-0.00013294476957526058,-453.2380065917969,592.2437133789062,-79.63957214355469,-242.64151000976562,-170.37135314941406,-315.9643859863281,-449.045654296875,566.7908325195312,0.3046836853027344,3.703445690916851e-05,-0.000404132908442989,-4.585805436363444e-05,0.0013013548450544477,0.0013494270388036966,-0.004651316907256842,0.007136030588299036,-0.003280006116256118,-0.005477601196616888,-0.0,2352.837646484375,2317.11181640625,2143.354736328125,2188.98046875
1763360968.6325822,3139107394136596315,902,29.120075225830078,28.914548873901367,53.79886245727539,53.91913986206055,-0.10102986544370651,0.12483447790145874,-0.060573216527700424,0.03531574830412865,-5.96791410446167,4.841386795043945,-3.0979509353637695,2.910196304321289,0.0,0.0,0.0,0.0,0.00041034576133824885,0.00044231617357581854,0.0004101881058886647,0.00044337616418488324,4.966215419699438e-05,5.2266514103394e-05,-0.00019434157002251595,-0.00019509597041178495,-454.2752990722656,590.6032104492188,-74.51079559326172,-238.06980895996094,-170.82301330566406,-313.5445251464844,-448.8822937011719,569.2247924804688,0.3046836853027344,-5.609293657471426e-05,-0.00044494427856989205,-9.277768549509346e-05,0.0018554817652329803,0.0011622578604146838,-0.004972569178789854,-0.004364924505352974,0.006354264449328184,0.00023441387747880071,-0.0,2350.6669921875,2320.340087890625,2137.58154296875,2192.533203125
1763360969.635465,3139107394136596315,922,34.185909271240234,33.79834747314453,53.269920349121094,53.29988479614258,0.3339349925518036,0.5692988038063049,0.7253139615058899,-0.23514030873775482,-19.834932327270508,-2.910196542739868,43.599300384521484,-12.3113374710083,28.64900779724121,28.755706787109375,3.5240986347198486,3.5012168884277344,4.558124542236328,4.587228298187256,-0.005953607149422169,-0.005893483757972717,0.01157520804554224,0.00745771499350667,-6.843178562121466e-05,0.0008023905684240162,-170.3031005859375,88.3972396850586,-76.07747650146484,9.680707931518555,4260.216796875,4185.134765625,657.3295288085938,652.6683959960938,0.30223846435546875,0.03008250705897808,0.017022863030433655,3.630122184753418,0.0015520477900281549,-0.014408809132874012,0.0021797253284603357,0.04530881345272064,-0.026042459532618523,0.0013584689004346728,-0.0,2804.152099609375,2726.563232421875,1759.691162109375,1765.63330078125
1763360970.6885626,3139107394136596315,943,29.62616539001465,29.174848556518555,53.75893783569336,53.80803680419922,0.0,0.0,0.0,0.0,-104.23063659667969,117.60814666748047,-3.178410291671753,47.689674377441406,7.511075496673584,7.511782169342041,7.509652614593506,7.513221263885498,-6.916947313584387e-05,5.770339612354292e-06,-1.558414055580215e-06,3.0813796911388636e-05,0.002869232790544629,-0.0024103159084916115,-0.00043824175372719765,0.0010461510391905904,-499.6702575683594,432.468505859375,-80.39740753173828,23.639604568481445,-8.492772102355957,-0.6983060240745544,-0.20308023691177368,-4.0831828117370605,0.3044891357421875,0.002355891978368163,0.049819812178611755,7.508079528808594,0.00733482651412487,0.0001960506779141724,-0.001064356998540461,-0.13960343599319458,0.00495228311046958,0.10594847053289413,-0.0,2448.57666015625,2397.438720703125,2094.03271484375,2138.71142578125
1763360971.734383,3139107394136596315,964,29.760345458984375,29.516389846801758,53.8687858581543,53.908233642578125,-0.2674385905265808,-0.1533329337835312,-1.7195193767547607,-1.8574296236038208,-35.08999252319336,-118.10436248779297,-70.5018539428711,-121.10171508789062,9.616860389709473,9.617202758789062,9.618082046508789,9.618996620178223,-4.353922122390941e-05,-4.455881935427897e-05,-3.4021119063254446e-05,1.7414115063729696e-05,0.003012632019817829,-0.002528687007725239,-0.0004649361944757402,0.0011230744421482086,-533.6370849609375,458.73126220703125,-87.14177703857422,20.80784034729004,-5.458870887756348,-5.494430065155029,-4.551671504974365,-2.338733434677124,0.30405426025390625,0.0025186382699757814,0.06982138752937317,9.614336967468262,0.0033270420972257853,0.00040870116208679974,0.007062365300953388,-0.034268345683813095,-0.0016739864367991686,0.03597236052155495,-0.0,2521.2802734375,2458.927978515625,2171.36767578125,2185.07568359375
1763360972.7876494,3139107394136596315,985,30.86480712890625,37.42454147338867,52.28370666503906,53.95912170410156,38.717350006103516,79.11845397949219,-7.168203353881836,9.606330871582031,-449.08880615234375,-414.1195373535156,305.18170166015625,507.90301513671875,16.547286987304688,15.217750549316406,13.249104499816895,14.041461944580078,0.23519928753376007,0.0856008306145668,-0.001884361496195197,-0.00172040902543813,-0.020762262865900993,-0.025829916819930077,-0.016808586195111275,-0.03459646552801132,372.3572692871094,2531.1494140625,964.2288818359375,3351.722412109375,4567.6572265625,6558.7099609375,-133.8831024169922,-216.63197326660156,0.3015899658203125,0.49934419989585876,-0.0006861388683319092,13.600560188293457,0.04449770599603653,0.4940851330757141,-0.02336921915411949,-0.4073944389820099,2.840280294418335,-0.5916792154312134,-0.12202625721693039,2445.9208984375,3879.47900390625,1012.99755859375,2338.310791015625
1763360973.8286328,3139107394136596315,1006,30.849212646484375,27.779146194458008,54.30292892456055,53.402713775634766,-29.538606643676758,29.586328506469727,-13.376175880432129,13.711228370666504,-1548.3250732421875,1959.7154541015625,-1239.9180908203125,1340.36669921875,13.219717025756836,13.017617225646973,13.292610168457031,13.061454772949219,-0.004489423707127571,-0.002802439033985138,0.0004182419797871262,-0.00021618699247483164,0.0050200000405311584,-0.00036118505522608757,-0.00415327912196517,-0.007121339440345764,-823.1183471679688,157.9938507080078,269.7060546875,866.030517578125,-572.6463623046875,-337.2984619140625,56.63896560668945,-29.571250915527344,0.30493927001953125,-0.21425628662109375,0.0801410898566246,13.168635368347168,0.08497009426355362,-0.1455477476119995,-0.07775034010410309,2.483079195022583,2.4599030017852783,-2.8458454608917236,0.047705162316560745,2691.8798828125,2258.3447265625,2322.4384765625,2061.37451171875
1763360974.8739574,3139107394136596315,1027,28.49169158935547,30.050931930541992,53.257286071777344,54.45311737060547,-31.194313049316406,32.08793640136719,-11.174304962158203,12.447460174560547,1019.0447998046875,-1074.982177734375,797.2060546875,-794.7921142578125,11.976807594299316,11.891359329223633,12.027931213378906,11.926297187805176,-0.00418023020029068,-0.003357594134286046,0.0004119744698982686,-0.00014087805175222456,0.0021108374930918217,-0.0033594125416129827,-0.009317951276898384,-0.009340187534689903,-377.0943298339844,605.1591796875,720.2030029296875,1166.982666015625,-481.27862548828125,-439.9431457519531,47.11141586303711,21.7071533203125,0.3031463623046875,-0.10710829496383667,0.07860996574163437,11.978809356689453,0.02738857828080654,-0.06055760756134987,-0.02750828117132187,-1.8139468431472778,2.5584957599639893,1.8689411878585815,0.025617053732275963,2217.162109375,2716.68359375,1744.6318359375,2652.2607421875
1763360975.8884547,3139107394136596315,1047,35.085201263427734,35.02143096923828,53.438133239746094,53.38203048706055,0.0,0.0,0.0,0.0,-3395.515869140625,-3492.49072265625,539.083740234375,511.6044921875,13.360410690307617,13.366067886352539,13.388091087341309,13.389785766601562,0.005051588639616966,0.005408815108239651,0.000620153034105897,0.0006334734498523176,0.0038164870347827673,-0.003160571213811636,-0.000303384818835184,0.0010768012143671513,-710.8643798828125,610.1576538085938,-97.9417724609375,17.815858840942383,-692.5933227539062,-735.750244140625,-80.88033294677734,-81.41177368164062,0.2997283935546875,0.0044469330459833145,0.08294421434402466,13.374802589416504,-0.03482954576611519,-0.0004566894785966724,-0.031811073422431946,-1.7696843147277832,-0.015199177898466587,-1.658775806427002,-0.0,3055.852294921875,3017.744140625,1924.26513671875,1884.162109375
1763360976.9250274,3139107394136596315,1068,30.994680404663086,27.55304527282715,54.469940185546875,53.26167678833008,9.977705001831055,-10.559856414794922,0.7016211152076721,-1.488849401473999,-509.43853759765625,469.4200134277344,-303.8406066894531,299.8307189941406,12.273022651672363,12.01768970489502,12.349874496459961,12.043560981750488,-0.0047731101512908936,-0.0019442845368757844,-0.00011237483704462647,0.0004945797263644636,0.008130577392876148,0.002800195710733533,0.017677007243037224,0.011280179023742676,-1326.625,-273.4907531738281,-2075.516845703125,-900.4781494140625,-660.9459838867188,-203.79580688476562,16.803375244140625,55.525665283203125,0.3031158447265625,-0.25334036350250244,0.08128627389669418,12.186064720153809,-0.009470698423683643,-0.19107383489608765,0.014128638431429863,0.5039351582527161,-1.9778562784194946,-0.47684499621391296,0.057637445628643036,3001.48095703125,1952.466064453125,2687.228515625,1743.349365234375
1763360977.92933,3139107394136596315,1088,29.084068298339844,29.02988052368164,53.9048957824707,53.86498260498047,-7.0544328689575195,-7.188096046447754,0.2903490960597992,0.30308958888053894,-442.2828063964844,-438.72216796875,-95.08429718017578,-102.55425262451172,10.870579719543457,10.867202758789062,11.059107780456543,11.063249588012695,-0.018196716904640198,-0.01827434077858925,0.0006333440542221069,0.0006153724971227348,0.0029697436839342117,-0.002469837199896574,-0.000494771113153547,0.0010811530519276857,-501.3481140136719,431.6248779296875,-92.72576141357422,30.804576873779297,-2079.54638671875,-2072.90380859375,87.07823181152344,83.86332702636719,0.303192138671875,0.0029881508089601994,0.07734304666519165,11.050871849060059,-0.004893180448561907,4.614648059941828e-05,-0.004743001889437437,-0.28589439392089844,-0.00543697364628315,-0.29274052381515503,-0.0,2469.67578125,2445.773193359375,2218.210693359375,2189.1904296875
1763360978.9777472,3139107394136596315,1109,33.86807632446289,36.19709396362305,52.8398551940918,53.699493408203125,31.96790885925293,-72.13040161132812,18.034276962280273,-16.880035400390625,232.84274291992188,-3232.852294921875,1172.567626953125,-803.56298828125,11.193111419677734,11.608074188232422,11.327751159667969,11.598271369934082,0.05045373737812042,0.0069326963275671005,-0.0006405436433851719,-0.0006460802978836,-0.001106649055145681,-0.007764326874166727,0.009365788660943508,0.005044485442340374,-29.153688430786133,1289.1937255859375,-981.7713623046875,-353.9312744140625,4672.83984375,-969.537353515625,76.6507568359375,-77.15414428710938,0.2999534606933594,0.22024954855442047,0.0558304563164711,11.452008247375488,-0.09695611149072647,0.15139473974704742,0.06741426885128021,-2.599611759185791,-3.7796854972839355,0.8994709253311157,-0.052589479833841324,2840.106201171875,3226.4658203125,1649.0869140625,1859.0599365234375
1763360979.9898372,3139107394136596315,1129,28.563779830932617,29.149812698364258,54.72777557373047,52.95583724975586,29.492338180541992,-13.57376480102539,7.4965500831604,-12.720375061035156,82.70587158203125,393.8487548828125,-303.0895690917969,-72.29890441894531,9.743664741516113,9.607599258422852,9.761011123657227,9.590995788574219,-0.0008879473898559809,0.0017216169508174062,-0.0002794426691252738,0.00034305141889490187,0.006128981243818998,0.0008569479687139392,0.01225265208631754,0.008550669997930527,-982.32080078125,53.267112731933594,-1532.0926513671875,-518.8049926757812,-110.84295654296875,178.50152587890625,-42.93840408325195,31.125524520874023,0.2999305725097656,-0.14190660417079926,0.06501830369234085,9.667360305786133,-0.012751529924571514,-0.10526472330093384,0.02143232151865959,0.8969373106956482,-1.6254923343658447,-0.6087996959686279,0.043422259390354156,2505.246826171875,2271.363037109375,2776.234375,1561.798828125
1763360981.0287306,3139107394136596315,1150,27.235933303833008,30.30965805053711,54.4241943359375,53.40616226196289,2.6182827949523926,1.7742811441421509,0.6314366459846497,0.4939734935760498,443.0472412109375,403.12255859375,152.72496032714844,107.26152801513672,10.021736145019531,10.009126663208008,9.989652633666992,9.979893684387207,-0.0030774171464145184,-0.0004419341858010739,-0.00023611712094862014,-0.0001665804156800732,0.002761643612757325,-0.002566848648712039,-0.001205326640047133,0.0003808656183537096,-478.4956970214844,482.9051818847656,-97.8837890625,99.45115661621094,-331.1776123046875,50.777835845947266,-34.126190185546875,-18.244705200195312,0.2901115417480469,0.0006420722929760814,0.07289428263902664,9.978034973144531,0.01037631742656231,-0.001225882675498724,-0.00847191084176302,0.29889723658561707,0.02156766876578331,0.2855824828147888,-0.0,2074.27978515625,2665.29736328125,2504.644287109375,1948.176025390625
1763360982.0399275,3139107394136596315,1170,26.802339553833008,30.540800094604492,53.70109176635742,54.07749938964844,-25.483442306518555,17.26873207092285,-12.16828727722168,9.627341270446777,-318.4250793457031,-647.1900024414062,-34.41272735595703,-231.95742797851562,10.103562355041504,10.323139190673828,10.325271606445312,10.496220588684082,-0.021378062665462494,-0.019921522587537766,0.0008118634577840567,0.00038394422153942287,-0.0011954465880990028,-0.006479186937212944,-0.009895523078739643,-0.013530300930142403,13.20175552368164,957.0305786132812,748.8085327148438,1467.9990234375,-1901.5361328125,-2248.44140625,100.3331527709961,49.32503890991211,0.2965049743652344,0.1457914113998413,0.07300819456577301,10.396273612976074,0.026392873376607895,0.10970049351453781,-0.03485235199332237,-1.072644829750061,1.7764475345611572,0.5118564367294312,-0.03968270868062973,1859.85107421875,2947.79052734375,1977.1697998046875,2435.67822265625
1763360983.0800586,3139107394136596315,1191,29.24109649658203,28.327770233154297,54.01828384399414,53.7956428527832,3.1151621341705322,5.0022077560424805,-0.4772096574306488,1.3364105224609375,571.2970581054688,519.2085571289062,53.2552490234375,39.46870040893555,9.765641212463379,9.757453918457031,9.71090316772461,9.73853874206543,-0.00394982285797596,-0.004634218290448189,-0.00012934034748468548,0.0002922542917076498,0.0024643950164318085,-0.002861987566575408,0.002858441788703203,0.004433289170265198,-531.1932373046875,446.781494140625,-524.3848266601562,-265.4007873535156,-473.4480285644531,-484.51409912109375,-17.61330223083496,-34.22906494140625,0.2993659973144531,0.029922787100076675,0.06891416013240814,9.715752601623535,0.0014681039610877633,0.024729186668992043,-0.0011832511518150568,0.17140842974185944,-0.07142509520053864,0.16951832175254822,-0.0,2455.82568359375,2311.90185546875,2311.7421875,2122.690185546875
1763360984.0862308,3139107394136596315,1211,31.99703598022461,32.03535842895508,54.0975456237793,54.375816345214844,-65.933837890625,-55.433433532714844,6.506814956665039,10.836570739746094,565.1678466796875,172.19786071777344,-478.1976013183594,-487.0622253417969,17.689504623413086,17.684600830078125,17.75364112854004,17.75550651550293,-0.003582039149478078,-0.003966832999140024,8.222645556088537e-05,8.793515735305846e-05,0.002558331238105893,-0.00375490915030241,-0.001191257731989026,0.00045673505519516766,-574.5053100585938,597.3638916015625,-124.17423248291016,133.87863159179688,-450.2464599609375,-443.7537841796875,11.825613975524902,12.02648639678955,0.2964820861816406,-0.00868901889771223,0.1531178206205368,17.751657485961914,-0.013721081428229809,0.001416526734828949,-0.018859421834349632,0.5532287359237671,-0.013339965604245663,0.6955122947692871,-0.0,2581.74169921875,2489.94140625,2447.29638671875,2618.430419921875
1763360985.1377497,3139107394136596315,1232,29.8774356842041,29.489749908447266,53.8770637512207,54.06911087036133,-0.18496064841747284,-0.0971183106303215,0.05945562943816185,0.026151536032557487,6.303189754486084,0.4291534125804901,7.402896404266357,5.51193904876709,16.431901931762695,16.427270889282227,16.491783142089844,16.493160247802734,-0.00354923983104527,-0.0039005682338029146,8.041644468903542e-05,8.80883089848794e-05,0.00222775642760098,-0.003327690064907074,-0.0011908623855561018,0.0004167285223957151,-521.7107543945312,543.2351684570312,-95.62158966064453,113.54265594482422,-447.0159912109375,-441.1269226074219,10.866232872009277,11.201214790344238,0.2981300354003906,-0.008149463683366776,0.11242974549531937,16.491085052490234,-6.1963055486558e-07,0.0007728685741312802,5.620127922156826e-06,0.0021061748266220093,3.0251683710957877e-05,-0.0013292270014062524,-0.0,2577.97802734375,2526.745361328125,2204.2314453125,2317.52587890625
1763360986.1844006,3139107394136596315,1253,37.87140655517578,36.926448822021484,53.802391052246094,53.410858154296875,-0.807568371295929,2.4942307472229004,-1.9758939743041992,1.3545154333114624,-89.41142272949219,23.46931266784668,-28.9410400390625,21.792940139770508,28.66120719909668,29.231689453125,25.31001853942871,25.35281753540039,0.1285906285047531,0.14938326179981232,-0.001415804959833622,-0.0013864388456568122,0.0034693563356995583,-0.0037481223698705435,0.002795151202008128,0.004273826722055674,-424.7103576660156,332.0638427734375,-447.2708740234375,-264.62750244140625,6025.00732421875,5321.46044921875,-188.478271484375,-151.02035522460938,0.2935638427734375,0.057086143642663956,0.08940330147743225,25.36269187927246,0.0034883003681898117,0.043388087302446365,-0.003973695449531078,0.02440221980214119,0.02146504633128643,-0.02782013639807701,-0.0,3362.813232421875,3269.628662109375,2094.61962890625,1816.71923828125
1763360987.224466,3139107394136596315,1274,30.942045211791992,30.698976516723633,54.137611389160156,54.2907829284668,-0.22619961202144623,-0.22832302749156952,-0.03218650817871094,-0.02391636185348034,0.7577239871025085,0.6034969687461853,5.458294868469238,0.7510183453559875,24.48834800720215,24.482709884643555,24.56631851196289,24.568204879760742,-0.003099290421232581,-0.0033886597957462072,7.379696035059169e-05,8.413320028921589e-05,0.0023730588145554066,-0.0034406310878694057,-0.0012328913435339928,0.00045710481936112046,-527.0556030273438,586.0326538085938,-67.07673645019531,116.21804809570312,-420.95806884765625,-413.4550476074219,10.753496170043945,11.352826118469238,0.2969627380371094,-0.011807152070105076,0.15800456702709198,24.565332412719727,-0.0002696166920941323,0.0010003331117331982,0.00035117482184432447,-0.003742367494851351,6.086658322601579e-05,0.0007289531058631837,-0.0,2801.2392578125,2773.217529296875,2386.413330078125,2478.150390625
1763360988.2312167,3139107394136596315,1294,30.735036849975586,30.441049575805664,54.08180618286133,54.24799728393555,-0.3139301836490631,-0.4192068874835968,-0.18730758130550385,-0.15534459054470062,-14.01453971862793,-13.75302505493164,-9.575485229492188,-6.410478115081787,23.06528091430664,23.05971908569336,23.140777587890625,23.142623901367188,-0.0031864105258136988,-0.0034900049213320017,7.467988325515762e-05,8.446516585536301e-05,0.002352155279368162,-0.003409242257475853,-0.001212750212289393,0.00046129259862937033,-525.8346557617188,576.7025146484375,-72.7339096069336,115.20658874511719,-426.3891296386719,-418.98992919921875,10.71236515045166,11.261584281921387,0.2967071533203125,-0.010993242263793945,0.15079142153263092,23.139854431152344,-0.0006702576647512615,0.0009999950416386127,0.0006176650058478117,-0.0012660514330491424,1.590465944900643e-05,-0.0024706844706088305,-0.0,2756.430419921875,2718.75439453125,2345.92431640625,2444.946044921875
1763360989.232763,3139107394136596315,1314,30.545429229736328,30.207780838012695,54.032859802246094,54.209938049316406,-0.08147209137678146,-0.10058283060789108,0.008046627044677734,0.04939734563231468,7.3626627922058105,5.411355972290039,1.3008712530136108,2.910196304321289,21.690935134887695,21.685443878173828,21.76368522644043,21.7655086517334,-0.003266789484769106,-0.00358659029006958,7.574944174848497e-05,8.496858208673075e-05,0.0023413451854139566,-0.0033711169380694628,-0.0011819072533398867,0.0004762702446896583,-525.0475463867188,568.1577758789062,-78.61849212646484,114.60640716552734,-431.5329284667969,-424.237548828125,10.723977088928223,11.208730697631836,0.2960472106933594,-0.010012726299464703,0.14327144622802734,21.76285171508789,-0.0009482905734330416,0.0010069862473756075,0.0009772642515599728,-0.0016088642878457904,2.667540502443444e-05,0.0029104340355843306,-0.0,2719.9326171875,2673.2734375,2314.4150390625,2418.9443359375
1763360990.2389796,3139107394136596315,1334,30.375219345092773,29.99462127685547,53.98894500732422,54.172325134277344,0.03453344106674194,-0.11712311953306198,0.031068921089172363,0.026151536032557487,10.138749122619629,0.2950429618358612,1.3545154333114624,-1.6629693508148193,20.36085319519043,20.355430603027344,20.430679321289062,20.432498931884766,-0.003340619383379817,-0.0036796429194509983,7.686283061048016e-05,8.574995445087552e-05,0.002342808526009321,-0.0033259601332247257,-0.0011398792266845703,0.0005043153068982065,-524.3367309570312,560.134521484375,-83.91616821289062,113.76236724853516,-436.0589904785156,-428.90130615234375,10.748322486877441,11.185145378112793,0.29506683349609375,-0.00886774342507124,0.1357548087835312,20.429931640625,-0.0011674921261146665,0.0010205305879935622,0.0012385427253320813,0.0019242822891101241,8.50553551572375e-05,-0.002501662587746978,-0.0,2685.933837890625,2628.474365234375,2284.072021484375,2390.87255859375
1763360991.284249,3139107394136596315,1355,30.203187942504883,29.79521369934082,53.94855499267578,54.13149642944336,-0.23748724162578583,-0.33192333579063416,-0.12293457984924316,-0.19155441224575043,-12.230871200561523,-17.260011672973633,-12.204050064086914,-11.694429397583008,19.007352828979492,19.002033233642578,19.07400131225586,19.0758113861084,-0.0034138462506234646,-0.003773437812924385,7.784707850078121e-05,8.662958862259984e-05,0.002357106888666749,-0.0032704793848097324,-0.0010867358651012182,0.0005446972791105509,-522.6498413085938,552.1363525390625,-88.21773529052734,112.86820983886719,-439.8755187988281,-433.02227783203125,10.747980117797852,11.154091835021973,0.2937164306640625,-0.0075441207736730576,0.12781621515750885,19.073339462280273,-0.0013674749061465263,0.0010231687920168042,0.0015156302833929658,0.0025269060861319304,3.586755701689981e-05,-0.004805442411452532,-0.0,2648.1220703125,2583.34619140625,2253.7509765625,2359.30322265625
1763360992.3274112,3139107394136596315,1376,29.784778594970703,29.25775909423828,53.83196258544922,54.04362487792969,-0.3244355022907257,-0.2654269337654114,-0.1624971479177475,-0.2259760946035385,-22.51043701171875,-15.550106048583984,-8.945165634155273,-10.272859573364258,14.774741172790527,14.769881248474121,14.83216667175293,14.831205368041992,-0.0036145381163805723,-0.004034481942653656,6.234613829292357e-05,8.947034075390548e-05,0.0023425822146236897,-0.003176639787852764,-0.0010012233396992087,0.0005956735112704337,-517.3026733398438,534.923095703125,-97.61132049560547,114.43756103515625,-451.02703857421875,-444.7852783203125,-8.309163093566895,11.181074142456055,0.2924613952636719,-0.005197781138122082,0.10209767520427704,14.82907485961914,-0.0016884588403627276,0.0009574350551702082,0.0018678309861570597,-0.005410636775195599,0.001539626275189221,-0.0017952778143808246,-0.0,2560.845947265625,2471.40380859375,2172.35205078125,2292.8349609375
1763360993.3326044,3139107394136596315,1396,32.628089904785156,26.476097106933594,53.79130935668945,54.05226135253906,-8.848608016967773,8.700079917907715,-6.033628940582275,8.267909049987793,-405.76458740234375,390.3619689941406,101.34724426269531,-172.6269073486328,13.569446563720703,13.585051536560059,13.613628387451172,13.649505615234375,-0.0033181998878717422,-0.00472857104614377,-6.483811012003571e-05,0.00040960885235108435,0.0036159588489681482,-0.0018930092919617891,0.0069607882760465145,0.008514530025422573,-724.5272827148438,326.9898376464844,-883.1810913085938,-563.8740234375,-460.9920349121094,-440.7093200683594,8.711223602294922,50.74879837036133,0.2917442321777344,0.041615694761276245,0.09376996755599976,13.631702423095703,-0.0021673799492418766,0.021409897133708,0.0027776388451457024,0.576014518737793,-1.8684945106506348,-0.774365246295929,-0.0023368140682578087,3097.2255859375,1944.8773193359375,2220.09375,2265.724365234375
1763360994.3841288,3139107394136596315,1417,26.0780086517334,32.71668243408203,54.93048095703125,52.563690185546875,0.0,0.0,0.0,0.0,862.9000244140625,-494.170166015625,-598.2667236328125,456.7801513671875,12.399736404418945,12.40889835357666,12.455902099609375,12.45127010345459,-0.004395732190459967,-0.003347426885738969,5.535972741199657e-05,0.0001330285449512303,0.0033089236821979284,-0.002156266011297703,-0.0011253681732341647,0.00044410189730115235,-490.92828369140625,431.4506530761719,-77.25872039794922,50.4666862487793,-446.9787292480469,-466.028564453125,8.490038871765137,11.619918823242188,0.3008995056152344,0.006884478498250246,0.08776595443487167,12.452062606811523,0.012783782556653023,-0.003613757900893688,-0.03026548959314823,-0.4515223801136017,0.05578072369098663,-0.40745145082473755,-0.0,1935.239501953125,3138.470703125,2664.47900390625,1401.1707763671875
1763360995.429938,3139107394136596315,1438,26.876405715942383,31.464855194091797,54.59503936767578,53.23788833618164,19.507144927978516,-4.6469268798828125,-2.636611223220825,5.473047256469727,-14.068221092224121,-14.778956413269043,-58.87447738647461,-73.90825653076172,11.278076171875,11.282610893249512,11.331621170043945,11.327831268310547,-0.004656065721064806,-0.003878101008012891,7.678170368308201e-05,0.00010115518671227619,0.002797996625304222,-0.0025967033579945564,-0.0013788278447464108,0.00020296964794397354,-420.3741149902344,467.5836181640625,-18.0473690032959,84.84938049316406,-460.8148193359375,-468.5618896484375,10.33764362335205,10.97900676727295,0.2996711730957031,0.0005862745456397533,0.07287432253360748,11.328110694885254,0.0003221869410481304,-0.002592835109680891,-0.017361517995595932,-0.006579054985195398,0.016421670094132423,0.007889940403401852,-0.0,2113.07861328125,2907.19287109375,2591.287841796875,1872.653076171875
1763360996.4901848,3139107394136596315,1459,34.893680572509766,34.54538345336914,53.2813835144043,53.416507720947266,3.0771641731262207,-12.077092170715332,1.8145142793655396,1.5176831483840942,162.6625518798828,-518.4843139648438,31.70370864868164,113.0685043334961,27.200389862060547,27.334705352783203,14.638751029968262,14.659686088562012,0.8389406204223633,0.843567430973053,-0.0012552352854982018,-0.0012186374515295029,-0.00047828408423811197,-0.007156757637858391,-0.0014564194716513157,-6.942287291167304e-05,-122.97235107421875,157.951904296875,29.06293487548828,104.85628509521484,4418.82666015625,4278.5087890625,-129.91351318359375,-131.68389892578125,0.2998046875,-0.03668542578816414,0.060946643352508545,14.667025566101074,-0.01268050353974104,0.012924356386065483,0.00474230432882905,0.28361111879348755,0.03545036166906357,-0.2216232866048813,-0.0,2904.9921875,2790.676513671875,1753.585693359375,1841.8197021484375
1763360997.5275934,3139107394136596315,1480,30.440793991088867,29.931182861328125,53.935176849365234,54.18135452270508,-6.462335109710693,0.8805468082427979,1.577362298965454,-1.3826786279678345,67.83977508544922,-102.4000244140625,79.9164047241211,-65.70069885253906,20.21436309814453,20.21381187438965,20.294170379638672,20.294363021850586,-0.0038410283159464598,-0.0038807704113423824,7.332653331104666e-05,6.966833461774513e-05,0.0025605950504541397,-0.0031190558802336454,-0.0010624389396980405,0.0005739292246289551,-446.5848083496094,516.537353515625,-35.955623626708984,87.516357421875,-452.3597106933594,-451.2011413574219,9.223858833312988,9.066010475158691,0.3011741638183594,-0.006430145353078842,0.13483941555023193,20.292253494262695,-0.013151412829756737,0.0005659697344526649,0.0032777979504317045,-0.07308253645896912,-0.002732727210968733,0.12560397386550903,-0.0,2661.66845703125,2605.306640625,2256.31591796875,2385.1806640625
1763360998.5307531,3139107394136596315,1500,33.34494400024414,32.51115417480469,54.706565856933594,54.86907958984375,-2.5130062103271484,0.7376074194908142,6.134211540222168,-5.385204792022705,-30.228479385375977,82.22310638427734,176.03335571289062,5.686282634735107,-2.479864669169274e-08,-3.299719608662599e-09,-2.9137591894823345e-08,2.755026962120155e-08,-0.8974016904830933,-0.9104523062705994,-1.0,-1.0,0.001132095931097865,-0.0051594628021121025,-0.00193479482550174,-5.113068982609548e-05,-3.991312026977539,16.675355911254883,6.844452381134033,0.1847718507051468,-3134.77587890625,-2925.727783203125,-3551.2109375,-3613.2421875,0.30133819580078125,-0.018952280282974243,0.07268260419368744,11.101000785827637,-0.0015980107709765434,0.003838698845356703,0.017120536416769028,0.32367590069770813,0.0666327178478241,-0.2654581069946289,-0.0,1993.573974609375,1834.9931640625,2716.560546875,2788.7392578125
1763360999.5387177,3139107394136596315,1520,32.260372161865234,34.145408630371094,52.890132904052734,53.605552673339844,12.375711441040039,65.96893310546875,-8.664652824401855,9.454339027404785,-280.0226135253906,-414.73614501953125,167.5172882080078,218.0501708984375,7.890725135803223,7.665655136108398,6.935544013977051,7.037354469299316,0.10315514355897903,0.0705401599407196,-0.0031211739405989647,-0.0033332062885165215,-0.0011182072339579463,-0.006894006859511137,-0.0069350856356322765,-0.010773403570055962,-38.35036849975586,700.7235717773438,434.5504455566406,1072.660400390625,4379.14990234375,4694.4150390625,-266.8781433105469,-376.3365783691406,0.3020210266113281,0.10763902962207794,0.005984604358673096,6.986074447631836,0.03240031376481056,0.08144485205411911,-0.028766028583049774,-0.49770843982696533,1.4284138679504395,0.4233095645904541,-0.04045733064413071,2628.921875,3040.240966796875,1422.640625,2026.68798828125
1763361000.5852768,3139107394136596315,1541,25.236936569213867,32.74956512451172,53.88373565673828,53.5638542175293,-1.1284276247024536,-2.566650390625,0.25101006031036377,-1.0076165199279785,87.80209350585938,-45.369564056396484,-4.8682074546813965,10.232619285583496,7.125951290130615,7.9455437660217285,7.345232009887695,8.333414077758789,0.015926038846373558,-0.007760033011436462,0.00021363906853366643,0.000297828228212893,-0.0052586812525987625,-0.009669140912592411,0.005815321113914251,-0.05763574689626694,397.7044372558594,1262.593017578125,-521.9951782226562,3550.48095703125,1036.072509765625,-1021.9335327148438,-26.613733291625977,24.088428497314453,0.3051567077636719,1.024220585823059,0.040418997406959534,7.505059719085693,0.011726335622370243,0.647804856300354,-0.006300528533756733,0.038870178163051605,-0.09747862070798874,-0.087705098092556,-0.30413997173309326,1330.54931640625,3403.512451171875,2239.82421875,2100.7607421875
1763361001.5888028,3139107394136596315,1561,26.9570369720459,29.471115112304688,55.17081832885742,53.08855056762695,12.879743576049805,-3.555379629135132,2.702101945877075,-10.217874526977539,-623.9822998046875,112.59911346435547,-178.5680389404297,73.55958557128906,4.702206134796143,5.23768424987793,5.0230913162231445,5.931995868682861,0.022707832977175713,-0.013291490264236927,0.0019698948599398136,0.004029752220958471,0.002696406561881304,-0.0013748942874372005,0.10620136559009552,0.033965710550546646,-359.46673583984375,252.93865966796875,-5525.09765625,-1698.70947265625,1963.646484375,1431.1636962890625,-191.33590698242188,289.2250061035156,0.304107666015625,1.0840678215026855,0.028759615495800972,4.971295356750488,-0.008892117999494076,0.691714346408844,-0.003956406377255917,-0.13098767399787903,-1.891722559928894,-0.05817615985870361,-0.30413997173309326,1811.3466796875,2584.0654296875,3781.77587890625,1747.3543701171875
1763361002.6262712,3139107394136596315,1582,29.87424087524414,37.901615142822266,53.52075958251953,52.948204040527344,17.966999053955078,17.394573211669922,3.168135643005371,-2.0825119018554688,-84.95223236083984,-192.38124084472656,54.99868392944336,-292.4814453125,8.945122718811035,7.38184118270874,4.467216491699219,5.123310089111328,0.6262107491493225,0.2568376958370209,-0.0015781449619680643,-0.0026006759144365788,-0.016912905499339104,-0.02081511728465557,0.01189994066953659,-0.042495980858802795,8.526731491088867,679.8079833984375,-1002.650390625,2551.62451171875,3566.240478515625,5656.5859375,179.0079803466797,188.5596160888672,0.3020744323730469,0.6003389954566956,0.005986105650663376,4.628039360046387,0.019649546593427658,0.4351172149181366,-0.00356849143281579,0.411272794008255,1.264162540435791,0.24342620372772217,-0.30413997173309326,2168.272705078125,3581.353515625,2033.9090576171875,1617.40869140625
1763361003.6360886,3139107394136596315,1602,30.157106399536133,29.5361385345459,54.65883255004883,55.426422119140625,-17.57405662536621,-9.422264099121094,3.8657336235046387,-9.215621948242188,451.3285217285156,-52.658382415771484,-523.1380004882812,-575.6287231445312,0.0,0.0,0.0,-1.0595250232725562e-09,-0.6373655200004578,-0.6094463467597961,-0.6423828601837158,-0.6131052374839783,0.001691762125119567,-0.001658524852246046,-0.02856920287013054,-0.03498929738998413,-9.080657958984375,9.157554626464844,173.24456787109375,276.76751708984375,-3126.09033203125,-3032.45263671875,-3950.3779296875,-4627.6416015625,0.30249786376953125,-0.18940047919750214,0.04305114597082138,3.1815857887268066,-0.007665808778256178,-0.11261125653982162,-0.0014339253539219499,0.23728448152542114,1.0439125299453735,-0.38959595561027527,0.08591115474700928,1861.2039794921875,1791.884033203125,2694.57080078125,3177.947265625
1763361004.6404343,3139107394136596315,1622,31.40350341796875,27.97585105895996,53.20253372192383,54.154319763183594,-1.9910931587219238,3.770515203475952,3.61427640914917,-7.376297950744629,-76.6843490600586,144.6247100830078,29.893211364746094,-50.720584869384766,0.0,0.0,0.0,-1.0595250232725562e-09,0.0007039172342047095,0.0018126264913007617,0.00030902319122105837,0.0014965410809963942,0.0011274261632934213,0.0011413361644372344,-0.0021190657280385494,-0.002291178796440363,87.4786376953125,233.73385620117188,-228.982666015625,92.63397216796875,-57.74746322631836,-242.11463928222656,-271.9095764160156,499.3702697753906,0.3038444519042969,-0.0012005765456706285,-0.0012751364847645164,-0.004655796568840742,-0.0018565983045846224,-0.0009025910403579473,-0.002311781281605363,-0.040261268615722656,-0.05070846527814865,-0.005295783746987581,0.20151285827159882,2709.36083984375,2118.9375,1794.5037841796875,2250.4921875
1763361005.6766472,3139107394136596315,1643,29.56559181213379,30.058330535888672,53.64147186279297,53.718753814697266,0.1465156525373459,0.027604399248957634,0.005364417564123869,-0.06571412086486816,6.182490348815918,-1.2807546854019165,0.4425644278526306,-0.335276335477829,0.0,0.0,0.0,0.0,0.0007686414755880833,0.001391516881994903,0.0007529492722824216,0.0014072972116991878,0.0008108298643492162,0.0008173630922101438,-0.00093502935487777,-0.0009367347229272127,-90.12276458740234,136.23397827148438,-168.87054443359375,254.7250213623047,-114.56547546386719,-271.90667724609375,282.8850402832031,-57.683807373046875,0.3033905029296875,-7.303851816686802e-07,-0.0005098695983178914,-0.0021024688612669706,-0.001816587639041245,0.0006387750618159771,-0.0022029762621968985,0.002079626778140664,-1.2831295862270053e-05,-0.0007659661932848394,-0.0,2390.4580078125,2477.83251953125,2045.4256591796875,2085.63671875
1763361006.7400155,3139107394136596315,1664,29.639097213745117,30.101266860961914,53.63742446899414,53.67436599731445,-0.002346932655200362,0.1362338662147522,0.06213784217834473,0.07018446177244186,-1.642852783203125,5.3107733726501465,3.56733775138855,2.8565521240234375,0.0,0.0,0.0,0.0,0.0008253517444245517,0.0010936150792986155,0.0008183963946066797,0.001099883345887065,0.0002964434097521007,0.0003023714234586805,-0.00042886301525868475,-0.00043044332414865494,-110.56771850585938,126.93738555908203,-140.37290954589844,290.5655822753906,-144.82827758789062,-282.73052978515625,262.64141845703125,-65.52613067626953,0.303375244140625,-0.00045472715282812715,-0.00037650379817932844,-0.0009226776892319322,-0.0003784403088502586,3.665978874778375e-05,-0.002467106794938445,0.0029010900761932135,0.0004822344344574958,-0.0008445744751952589,-0.0,2405.571044921875,2479.84326171875,2034.8104248046875,2062.8798828125
1763361007.787791,3139107394136596315,1685,29.564851760864258,30.070344924926758,53.745033264160156,53.804107666015625,-0.016652047634124756,-0.5734338760375977,0.4906207323074341,0.15132127702236176,-1.8037854433059692,-2.29999041557312,-2.186000347137451,-1.11311674118042,0.0,0.0,0.0,0.0,0.0009812549687922,0.0009902019519358873,0.0009786667069420218,0.0009891855297610164,0.00019490456907078624,0.0002010680182138458,7.55975634092465e-05,7.393235864583403e-05,-122.07929229736328,114.79145050048828,-155.96963500976562,291.86956787109375,-139.6776580810547,-281.4095153808594,276.3641052246094,-70.4587173461914,0.3032417297363281,0.0008276020525954664,-0.0016488947439938784,-0.0013827738584950566,-0.0019624335691332817,0.0009052675450220704,0.0005050851032137871,0.005660578142851591,1.07567745999404e-06,0.00842134840786457,-0.0,2390.80615234375,2465.3662109375,2120.036865234375,2157.9326171875
1763361008.8297138,3139107394136596315,1706,31.038007736206055,28.527204513549805,53.23896026611328,54.3334846496582,4.499069690704346,-4.626810073852539,2.0074100494384766,-2.359896659851074,-68.61763000488281,41.93632888793945,146.42178344726562,-225.6810302734375,0.0,0.0,0.0,0.0,0.0013201242545619607,0.0008184638572856784,0.0014389465795829892,0.0009061781456694007,-0.0006647200207225978,-0.0006626885151490569,0.0004425397783052176,0.000535711005795747,-19.80280876159668,200.327392578125,-240.89646911621094,171.56210327148438,-125.5240249633789,-258.2790222167969,-299.6535949707031,615.335205078125,0.3035163879394531,0.0006382850115187466,-0.0012743878178298473,-0.0024699668865650892,-0.0013025966472923756,0.0007953775348141789,0.0007473839796148241,-0.10222039371728897,0.019420836120843887,-0.00526775699108839,0.1871451586484909,2677.010986328125,2167.74609375,1823.8446044921875,2445.6650390625
1763361009.8362768,3139107394136596315,1726,29.479015350341797,29.938007354736328,53.775047302246094,53.812339782714844,-0.01195818092674017,-0.012740491889417171,0.002235173946246505,0.03039836697280407,1.9915398359298706,-1.508742332458496,-0.9119510054588318,1.890956997871399,0.0,0.0,0.0,0.0,0.0010004900395870209,0.0010372225660830736,0.0009994263527914882,0.0010384103516116738,0.00014742834900971502,0.0001536180207040161,-5.656253415509127e-05,-5.8279289078200236e-05,-105.89463806152344,127.79882049560547,-167.9490966796875,279.0157470703125,-130.716552734375,-278.57562255859375,232.08358764648438,-20.533817291259766,0.3032989501953125,0.00042124284664168954,-0.0012427984038367867,-0.0016741420840844512,-0.001919806469231844,0.0010161771206185222,0.0009150112164206803,0.00221924833022058,-0.0005937180831097066,0.0007231241906993091,-0.0,2373.103515625,2445.93798828125,2137.1572265625,2162.77978515625
1763361010.8866532,3139107394136596315,1747,29.46778106689453,29.92232894897461,53.77622985839844,53.81138229370117,-0.006593763362616301,-0.005699693690985441,0.006258487235754728,-0.00447034789249301,-0.5565583109855652,0.4090368151664734,0.7241963148117065,-0.24139876663684845,0.0,0.0,0.0,0.0,0.0010062740184366703,0.0010208464227616787,0.001005892758257687,0.001021582051180303,0.00011818383791251108,0.00012433883966878057,-2.9147215172997676e-05,-3.085590651608072e-05,-107.53118133544922,127.7876968383789,-166.7368927001953,279.89410400390625,-132.14285278320312,-277.3951110839844,231.53111267089844,-19.845266342163086,0.3033103942871094,0.00040475980495102704,-0.0011884159175679088,-0.0016420248430222273,-0.0019115456379950047,0.0010151405585929751,0.0009662454249337316,0.0001471442956244573,-3.6160923627903685e-05,0.00022795282711740583,-0.0,2371.0283203125,2442.896484375,2137.71484375,2162.33203125
1763361011.9364057,3139107394136596315,1768,33.56424331665039,34.14094924926758,53.380027770996094,53.27894973754883,0.0,0.0,0.0,0.0,-23.724138259887695,-26.285646438598633,-7.510183811187744,5.176662445068359,25.754653930664062,25.593935012817383,3.962567090988159,3.9879233837127686,3.6320693492889404,3.5938146114349365,-0.0025334288366138935,-0.0026157733518630266,-0.00800632406026125,-0.012417423538863659,-0.0008609244250692427,8.693027484696358e-05,-78.91729736328125,163.2294921875,-8.428168296813965,69.52384185791016,3923.3369140625,4047.197265625,-261.2431335449219,-264.258056640625,0.3014259338378906,-0.033074647188186646,0.020267220214009285,3.985139846801758,-8.472061017528176e-05,0.015936480835080147,3.7917678127996624e-05,-0.015884490683674812,0.03560173884034157,0.005071746185421944,-0.0,2693.451171875,2802.63330078125,1800.420166015625,1750.713134765625
1763361012.9740002,3139107394136596315,1789,29.602243423461914,32.10301971435547,55.10170364379883,54.57835388183594,-37.40843200683594,-38.17118453979492,-17.688051223754883,-24.917049407958984,390.435546875,-1049.9505615234375,-119.7874755859375,-396.671875,-1.2940989613241527e-08,-1.3056009606771113e-08,-1.801323534778021e-08,0.0,-0.8165596723556519,-0.838604748249054,-0.8120951652526855,-0.8401889801025391,-0.01577197015285492,-0.020267892628908157,0.07072252780199051,0.07089582830667496,51.38800811767578,79.93319702148438,-363.3460388183594,-289.4730224609375,-2668.193359375,-3172.136474609375,-4003.193115234375,-3529.25537109375,0.30057525634765625,0.13961723446846008,0.09498478472232819,5.045012950897217,0.010237419977784157,0.15251177549362183,0.00327511434443295,0.6893171668052673,-0.8547198176383972,0.21883445978164673,-0.0,1590.422607421875,1950.883544921875,2809.629638671875,2431.537109375
1763361013.9784184,3139107394136596315,1809,28.78468894958496,30.515827178955078,54.158912658691406,53.35801315307617,-0.012181698344647884,0.19568948447704315,-0.05342065915465355,0.49285590648651123,-7.154791831970215,11.741368293762207,-5.887447834014893,31.730531692504883,0.0,0.0,0.0,0.0,0.0012553741689771414,0.001745635294355452,0.0012388728791847825,0.001761980471201241,0.0020645209588110447,0.0020732595585286617,-0.00039383035618811846,-0.0003963119233958423,-115.816162109375,207.02456665039062,-427.22808837890625,-178.13427734375,137.40386962890625,-65.2154541015625,-122.76803588867188,159.58351135253906,0.2992057800292969,0.01207023486495018,-0.0016445106593891978,-0.006723676808178425,0.0013902244390919805,0.009030910208821297,0.00011940018157474697,-0.001117049134336412,-0.014390944503247738,-9.696726192487404e-05,-0.0,2274.107421875,2625.850341796875,2376.330810546875,1853.21142578125
1763361015.0282612,3139107394136596315,1830,28.797100067138672,30.495620727539062,54.17873764038086,53.36530685424805,-0.03073364496231079,0.015757977962493896,-0.02861022762954235,-0.01452863123267889,-2.608448028564453,5.418061256408691,-0.5498528480529785,0.8046625852584839,0.0,0.0,0.0,0.0,0.0015488986391574144,0.0017252049874514341,0.0015409844927489758,0.0017332895658910275,0.0015662717632949352,0.001575530506670475,-0.00016369773948099464,-0.00016629690071567893,-124.21363067626953,208.9385528564453,-443.2604064941406,-193.04180908203125,149.41734313964844,-58.308475494384766,-109.37455749511719,169.23670959472656,0.2991828918457031,0.012078535743057728,-0.0017385329119861126,-0.006769483909010887,0.0014767160173505545,0.010592973791062832,0.0001268833439098671,0.0003934884152840823,-0.00020099802350159734,3.3434185752412304e-05,-0.0,2281.466796875,2625.329345703125,2390.24951171875,1854.60009765625
1763361016.0354471,3139107394136596315,1850,28.804738998413086,30.50046730041504,54.180152893066406,53.365631103515625,0.08672475069761276,-0.0005587934865616262,0.025257466360926628,0.011622904799878597,1.5221531391143799,-0.8046625852584839,0.442564457654953,-0.12069939821958542,0.0,0.0,0.0,0.0,0.0015722186071798205,0.0016810889355838299,0.0015660536009818316,0.0016874000430107117,0.001478679128922522,0.0014878778019919991,-9.160299669019878e-05,-9.419637353857979e-05,-125.37508392333984,210.17068481445312,-448.12652587890625,-198.21214294433594,149.0492706298828,-61.077518463134766,-109.68521881103516,167.81837463378906,0.2991752624511719,0.012140561826527119,-0.001754870405420661,-0.006755606271326542,0.0014904786366969347,0.010861733928322792,0.00012810055341105908,-0.0005482043488882482,8.136033284245059e-05,-4.623230415745638e-05,-0.0,2284.099365234375,2625.21728515625,2392.455078125,1855.2156982421875
1763361017.075264,3139107394136596315,1871,28.806203842163086,30.4989013671875,54.18006134033203,53.364925384521484,0.03922730311751366,0.023245809599757195,0.012069939635694027,0.014752148650586605,2.152472496032715,-1.1131166219711304,0.2816319167613983,0.06705522537231445,0.0,0.0,0.0,0.0,0.0015742367831990123,0.0016788537614047527,0.0015681384829804301,0.001685040770098567,0.0014763016952201724,0.001485510845668614,-8.334496669704095e-05,-8.593794336775318e-05,-125.07982635498047,210.27003479003906,-449.0187072753906,-197.51901245117188,149.116943359375,-61.2740364074707,-111.23391723632812,168.56040954589844,0.2991752624511719,0.012142997235059738,-0.0017622464802116156,-0.0067420885898172855,0.0014970889315009117,0.010862092487514019,0.00012864044401794672,-0.0006131291738711298,0.00010281800496159121,-5.142035297467373e-05,-0.0,2284.2607421875,2624.89697265625,2392.244873046875,1854.7919921875
1763361018.0869203,3139107394136596315,1891,28.806514739990234,30.49913787841797,54.1796760559082,53.36473083496094,-0.02134591154754162,-0.04570930823683739,-0.0248104315251112,-0.030621886253356934,-3.8355581760406494,-4.626810073852539,-2.440809965133667,-3.4734604358673096,0.0,0.0,0.0,0.0,0.0015749797457829118,0.0016796637792140245,0.0015688578132539988,0.001685849973000586,0.0014779603807255626,0.0014871639432385564,-7.99822446424514e-05,-8.257172157755122e-05,-125.14078521728516,210.0032501220703,-449.0574951171875,-197.6741943359375,149.03817749023438,-61.17509841918945,-111.15034484863281,168.54429626464844,0.29917144775390625,0.012161079794168472,-0.0017683689948171377,-0.006741245277225971,0.001502392115071416,0.010853230953216553,0.00012883207818958908,0.0006007449119351804,-2.2631136744166724e-05,4.8655198042979464e-05,-0.0,2283.502685546875,2624.451904296875,2391.54248046875,1854.1331787109375
1763361019.1353908,3139107394136596315,1912,28.801450729370117,30.498279571533203,54.178470611572266,53.364784240722656,0.013187526725232601,0.022687016054987907,-0.006705522071570158,0.004693865310400724,0.3956257700920105,2.6486809253692627,-0.18775460124015808,-0.026822088286280632,0.0,0.0,0.0,0.0,0.001560337608680129,0.0016749915666878223,0.0015541943721473217,0.001681227353401482,0.0014261668547987938,0.0014353175647556782,-0.00014087477757129818,-0.0001434236764907837,-124.8016128540039,209.88519287109375,-443.5902099609375,-194.74118041992188,148.28916931152344,-60.18455505371094,-111.63626861572266,168.2738037109375,0.2991752624511719,0.011889398097991943,-0.001719483407214284,-0.006698385812342167,0.001461125211790204,0.01066931989043951,0.00012431904906406999,-0.00028849110822193325,-0.0015785357682034373,-3.3452521165600047e-05,-0.0,2282.8681640625,2624.7294921875,2390.228515625,1854.698486328125
1763361020.138342,3139107394136596315,1932,28.805248260498047,30.498043060302734,54.17919158935547,53.3642692565918,0.023581085726618767,-0.017099082469940186,-0.046268101781606674,0.009164213202893734,4.123895645141602,0.08046615123748779,-4.036724090576172,2.896785259246826,0.0,0.0,0.0,0.0,0.001574900234118104,0.0016686904709786177,0.0015691601438447833,0.001674529048614204,0.0014295586152002215,0.0014387255068868399,-5.446333307190798e-05,-5.702891940018162e-05,-125.27142333984375,211.1724853515625,-450.9388427734375,-200.62796020507812,147.88052368164062,-60.87957763671875,-111.40635681152344,168.76284790039062,0.29917144775390625,0.011946993879973888,-0.0017241649329662323,-0.006682898383587599,0.0014645251212641597,0.010650134645402431,0.00012439505371730775,-0.0019095720490440726,-0.013660266064107418,-0.0001637780078453943,-0.0,2283.79638671875,2624.9228515625,2390.91259765625,1854.353515625
1763361021.1799755,3139107394136596315,1953,28.804399490356445,30.498760223388672,54.17914962768555,53.36402893066406,-0.07264315336942673,-0.05543231591582298,-0.037997957319021225,-0.03732740506529808,-4.157423496246338,-6.323307037353516,-4.237890243530273,-1.9177790880203247,0.0,0.0,0.0,0.0,0.001561430050060153,0.00167374056763947,0.0015552883269265294,0.001679945387877524,0.0014263594057410955,0.0014354862505570054,-0.00013182726979721338,-0.00013438229507301003,-124.7278823852539,211.29554748535156,-444.0576477050781,-195.20777893066406,148.26284790039062,-60.4037971496582,-111.59293365478516,168.00962829589844,0.29917144775390625,0.011811221949756145,-0.0017367315012961626,-0.006670583970844746,0.0014779707416892052,0.010705176740884781,0.00012628566764760762,0.0009096878929995,0.0009866616455838084,9.759241220308468e-05,-0.0,2282.974365234375,2623.9306640625,2390.05126953125,1853.9290771484375
1763361022.1855872,3139107394136596315,1973,28.803802490234375,30.502012252807617,54.17940902709961,53.36659622192383,0.026263294741511345,0.0459328256547451,0.02391636185348034,0.01564621925354004,-0.46938666701316833,-1.636147141456604,-0.42915353178977966,-0.8851287961006165,0.0,0.0,0.0,0.0,0.001559422118589282,0.0016649785684421659,0.0015535678248852491,0.0016709386836737394,0.0014034570194780827,0.0014125807210803032,-0.0001458969054510817,-0.00014844683755654842,-122.59095001220703,212.2193603515625,-442.7357482910156,-194.37835693359375,148.0128936767578,-61.20676803588867,-111.49590301513672,167.41209411621094,0.2991676330566406,0.011691306717693806,-0.001727757859043777,-0.006652797572314739,0.001472114003263414,0.010758189484477043,0.00012632891593966633,-0.0005843443213962018,0.0001154467390733771,-4.702683872892521e-05,-0.0,2283.104248046875,2625.468505859375,2391.08251953125,1856.18701171875
1763361023.2294989,3139107394136596315,1994,28.80381202697754,30.50206756591797,54.17856979370117,53.36635208129883,-0.011622904799878597,0.009611248038709164,-0.017210841178894043,0.0006705521955154836,-1.1198221445083618,0.9924171566963196,-1.3411043882369995,0.1341104358434677,0.0,0.0,0.0,0.0,0.0015592834679409862,0.001663428032770753,0.0015534688718616962,0.0016693361103534698,0.00140066584572196,0.0014097844250500202,-0.00014567664766218513,-0.00014822217053733766,-122.28941345214844,212.41485595703125,-442.34405517578125,-194.31639099121094,147.9375457763672,-61.335853576660156,-111.38475036621094,167.2032470703125,0.299163818359375,0.011673212982714176,-0.0017466279678046703,-0.006640305742621422,0.0014899608213454485,0.01076472271233797,0.0001279312273254618,9.823589789448306e-05,-4.554167026071809e-05,8.338246516359504e-06,-0.0,2282.6591796875,2625.480712890625,2390.153564453125,1855.7801513671875
1763361024.285103,3139107394136596315,2015,28.80463218688965,30.50250816345215,54.179100036621094,53.36674118041992,0.029839573428034782,0.026151536032557487,0.015869736671447754,0.014752148650586605,0.7241963744163513,1.2405215501785278,-0.13411033153533936,0.053644176572561264,0.0,0.0,0.0,0.0,0.0015583225758746266,0.0016624522395431995,0.0015524948248639703,0.0016683716094121337,0.0014013893669471145,0.0014105124864727259,-0.0001445802627131343,-0.00014714991266373545,-122.31856536865234,212.35934448242188,-442.5078125,-194.37612915039062,147.83291625976562,-61.43106460571289,-111.53369140625,167.0985870361328,0.299163818359375,0.011683437041938305,-0.0017330548726022243,-0.00663738651201129,0.00147704454138875,0.010761458426713943,0.00012684433022513986,-0.0005698156892322004,-7.823109058335831e-07,-4.8650832468410954e-05,-0.0,2283.10009765625,2625.72705078125,2390.796630859375,1856.2288818359375
1763361025.3381445,3139107394136596315,2036,28.803821563720703,30.500732421875,54.17840576171875,53.366424560546875,0.00044703480671159923,0.006593763362616301,-0.001788139226846397,0.00022351740335579962,0.2682209014892578,1.6964969635009766,-0.10728834569454193,0.09387730062007904,0.0,0.0,0.0,0.0,0.001558807329274714,0.001665790448896587,0.0015529071679338813,0.0016717964317649603,0.0014100834960117936,0.001419185078702867,-0.00014275067951530218,-0.00014531414490193129,-123.06758880615234,212.93357849121094,-442.4173889160156,-194.37266540527344,147.811767578125,-61.17197036743164,-111.46098327636719,167.2802734375,0.2991600036621094,0.011706936173141003,-0.0017471285536885262,-0.006645689718425274,0.0014898902736604214,0.010749300010502338,0.00012780187535099685,3.003515121235978e-05,-5.034729474573396e-05,4.408356744534103e-06,-0.0,2282.7685546875,2625.408203125,2390.162841796875,1855.7952880859375
1763361026.3826365,3139107394136596315,2057,28.80447769165039,30.500988006591797,54.1787109375,53.366737365722656,0.04157423600554466,0.02827495150268078,0.023245809599757195,0.004023313522338867,1.636147141456604,2.4341044425964355,0.5766748785972595,-1.046061396598816,0.0,0.0,0.0,0.0,0.0015586811350658536,0.0016651060432195663,0.0015528000658378005,0.0016711076023057103,0.0014088638126850128,0.0014179582940414548,-0.00014216174895409495,-0.00014472259499598294,-122.91871643066406,213.0364532470703,-442.35711669921875,-194.4065399169922,147.76519775390625,-61.23865509033203,-111.4549789428711,167.20530700683594,0.2991600036621094,0.011708062142133713,-0.001737668877467513,-0.006647150497883558,0.0014810934662818909,0.010749859735369682,0.00012705387780442834,-0.0005058897077105939,-8.52718876558356e-05,-4.278699270798825e-05,-0.0,2283.144287109375,2625.6923828125,2390.54833984375,1856.163330078125
1763361027.4344873,3139107394136596315,2078,28.80379867553711,30.49962043762207,54.178131103515625,53.36655044555664,-0.00447034789249301,-0.0020116567611694336,-0.002235173946246505,0.005140900146216154,-0.8717177510261536,0.14081597328186035,-0.1609325110912323,0.3352760672569275,0.0,0.0,0.0,0.0,0.0015586796216666698,0.0016644850838929415,0.0015528106596320868,0.001670467434450984,0.001408462063409388,0.0014175638789311051,-0.00014037838263902813,-0.00014294288121163845,-122.82478332519531,212.8315887451172,-442.2889099121094,-194.43099975585938,147.69041442871094,-61.21940231323242,-111.42173767089844,167.0608673095703,0.29915618896484375,0.011689772829413414,-0.001748947543092072,-0.006636965088546276,0.0014917869120836258,0.010757342912256718,0.0001280828582821414,3.935303175239824e-05,0.00035796311567537487,1.024251014314359e-05,-0.0,2282.7529296875,2625.021484375,2390.024169921875,1855.9310302734375
1763361028.4853628,3139107394136596315,2099,28.805192947387695,30.499752044677734,54.178131103515625,53.36663055419922,0.02134591154754162,0.023692844435572624,0.018551943823695183,0.026822088286280632,5.297362327575684,4.157423496246338,3.5539262294769287,3.66121506690979,0.0,0.0,0.0,0.0,0.0015577998710796237,0.0016658223466947675,0.0015518905129283667,0.0016718272818252444,0.0014061571564525366,0.001415260136127472,-0.0001513049501227215,-0.00015386826999019831,-122.55089569091797,212.9368438720703,-442.6878967285156,-194.6990203857422,147.53199768066406,-61.057613372802734,-111.10125732421875,167.2584686279297,0.2991523742675781,0.011679560877382755,-0.0017499703681096435,-0.006645443849265575,0.0014930346515029669,0.010759010910987854,0.00012819292896892875,-0.0005853641196154058,-1.5981493561412208e-05,-4.91921637149062e-05,-0.0,2283.16845703125,2625.37109375,2390.272216796875,1856.112548828125
1763361029.528571,3139107394136596315,2120,28.805011749267578,30.49952507019043,54.17790222167969,53.36655807495117,-0.02436339668929577,0.005364417564123869,0.0020116567611694336,0.004246830940246582,-1.2874600887298584,0.1475214809179306,0.1341104507446289,0.37550923228263855,0.0,0.0,0.0,0.0,0.0015595473814755678,0.0016638870583847165,0.0015537170693278313,0.001669803517870605,0.001402850728482008,0.0014119443949311972,-0.00013554244651459157,-0.00013810164819005877,-122.1910400390625,213.2686309814453,-442.3778076171875,-194.69007873535156,147.57666015625,-61.276920318603516,-111.32904052734375,166.90296936035156,0.2991523742675781,0.011688409373164177,-0.0017517228843644261,-0.006632204633206129,0.001494340831413865,0.01075825747102499,0.0001282960147364065,3.6880371681036195e-06,-8.426605927525088e-05,-7.246853073183956e-08,-0.0,2282.541015625,2625.123779296875,2389.8017578125,1855.8861083984375
1763361030.5363233,3139107394136596315,2140,28.805295944213867,30.499773025512695,54.177825927734375,53.3666877746582,0.0,0.0,0.0,0.0,3.681331157684326,4.868208885192871,3.862380266189575,2.6285643577575684,0.0,0.0,0.0,0.0,0.0015586199006065726,0.0016626321012154222,0.0015527907526120543,0.0016685426235198975,0.0014058116357773542,0.0014149027410894632,-0.00013990783190820366,-0.00014246841601561755,-122.44664764404297,212.90972900390625,-441.9122009277344,-194.3588409423828,147.526611328125,-61.35383224487305,-111.33094787597656,166.7853546142578,0.2991485595703125,0.011685198172926903,-0.001753404038026929,-0.006627566646784544,0.001495908829383552,0.010758617892861366,0.00012842865544371307,-0.00041213814984075725,2.4419276087428443e-05,-3.456661579548381e-05,-0.0,2283.10693359375,2625.23583984375,2389.984375,1856.03564453125
1763361031.5870113,3139107394136596315,2161,28.805644989013672,30.499300003051758,54.177635192871094,53.36664581298828,0.004693865310400724,-0.005140900146216154,-0.004023313522338867,0.008493661880493164,-0.06705522537231445,0.06034969910979271,-0.09387732297182083,0.4291534125804901,0.0,0.0,0.0,0.0,0.0015578769380226731,0.0016641148831695318,0.0015520148444920778,0.0016700848937034607,0.0014039694797247648,0.001413068501278758,-0.00014674932754132897,-0.00014931251644156873,-122.21597290039062,212.8830108642578,-442.5111083984375,-194.82077026367188,147.3832244873047,-61.14762878417969,-111.00700378417969,166.92770385742188,0.2991485595703125,0.011678114533424377,-0.001751702162437141,-0.006638927850872278,0.0014945948496460915,0.010760236531496048,0.00012832229549530894,-5.033332490711473e-05,2.1792945972265443e-06,-4.224129497742979e-06,-0.0,2283.02001953125,2624.945556640625,2389.75390625,1855.9691162109375
1763361032.6243923,3139107394136596315,2182,28.805747985839844,30.499849319458008,54.178001403808594,53.3675422668457,-0.028051434084773064,0.00447034789249301,-0.00044703480671159923,-0.010728835128247738,1.046061396598816,1.4819202423095703,-0.5230307579040527,-2.923607349395752,0.0,0.0,0.0,0.0,0.001558195916004479,0.001664046198129654,0.0015523151960223913,0.001669979770667851,0.001404252601787448,0.0014133576769381762,-0.00014577021647710353,-0.00014833650493528694,-122.18939208984375,212.81019592285156,-442.4977722167969,-194.86863708496094,147.33554077148438,-61.14432144165039,-110.9749526977539,166.89271545410156,0.2991447448730469,0.011678844690322876,-0.0017451473977416754,-0.006641547195613384,0.0014885185519233346,0.010760344564914703,0.00012781012628693134,-0.0002490053593646735,8.979811536846682e-05,-2.111366302415263e-05,-0.0,2282.85693359375,2625.02783203125,2390.047119140625,1856.4593505859375
1763361033.6372323,3139107394136596315,2202,28.806602478027344,30.50009536743164,54.17782974243164,53.36720657348633,0.024922190234065056,0.030174849554896355,0.02391636185348034,0.011846422217786312,5.270540237426758,4.291533946990967,3.6075704097747803,2.668797731399536,0.0,0.0,0.0,0.0,0.0015572872944176197,0.0016627622535452247,0.0015514399856328964,0.0016687167808413506,0.001406947267241776,0.0014160408172756433,-0.00015091024397406727,-0.00015347309818025678,-122.38551330566406,212.4798583984375,-441.94854736328125,-194.4638214111328,147.22592163085938,-61.21995162963867,-110.9518051147461,166.76731872558594,0.29914093017578125,0.011677403934299946,-0.0017445122357457876,-0.006637796759605408,0.0014879230875521898,0.01075994223356247,0.00012776126095559448,-0.0005097314133308828,6.929039227543399e-05,-4.2412426410010085e-05,-0.0,2283.4677734375,2625.26220703125,2390.192626953125,1856.4222412109375
1763361034.687427,3139107394136596315,2223,28.807397842407227,30.499698638916016,54.17763137817383,53.36711502075195,0.010840593837201595,-0.016205012798309326,-0.0011175869731232524,0.0008940696134231985,0.8583067655563354,-0.885128915309906,-0.24139876663684845,0.1475214809179306,0.0,0.0,0.0,0.0,0.0015583715867251158,0.001663030358031392,0.0015525477938354015,0.0016689625335857272,0.0014022385003045201,0.0014113319339230657,-0.0001435463345842436,-0.0001460988714825362,-121.92919921875,212.89193725585938,-442.3612060546875,-194.9423828125,147.270263671875,-61.21652603149414,-110.90089416503906,166.71995544433594,0.29914093017578125,0.0116783631965518,-0.0017459244700148702,-0.006636157166212797,0.001489198999479413,0.010761050507426262,0.00012786629667971283,1.0966322406602558e-05,3.911554358637659e-06,9.089125683203747e-07,-0.0,2283.315673828125,2624.90771484375,2389.752685546875,1856.253662109375
1763361035.7360466,3139107394136596315,2244,28.80743980407715,30.500015258789062,54.177574157714844,53.36727523803711,0.013411044143140316,0.03039836697280407,0.019893048331141472,0.012964009307324886,3.5338099002838135,5.156546115875244,3.3259384632110596,2.6285645961761475,0.0,0.0,0.0,0.0,0.001558277872391045,0.0016625100979581475,0.001552444533444941,0.0016684443689882755,0.0014024385018274188,0.0014115405501797795,-0.0001432652643416077,-0.00014582049334421754,-121.91238403320312,212.8247528076172,-442.3229064941406,-194.95152282714844,147.23190307617188,-61.25154495239258,-110.90874481201172,166.6566619873047,0.2991371154785156,0.01167757622897625,-0.0017469689482823014,-0.006634431891143322,0.0014901668764650822,0.010760880075395107,0.00012794818030670285,-0.00039693896542303264,-1.2740491911245044e-05,-3.3291868021478876e-05,-0.0,2283.5009765625,2625.26318359375,2389.88232421875,1856.4427490234375
1763361036.7864645,3139107394136596315,2265,28.806720733642578,30.499343872070312,54.17733383178711,53.3671989440918,0.0,0.0,0.0,0.0,0.20116563141345978,0.026822103187441826,0.013411044143140316,-0.6839631795883179,0.0,0.0,0.0,0.0,0.0015573551645502448,0.0016610071761533618,0.0015515551203861833,0.0016669203760102391,0.0014048432931303978,0.0014139331178739667,-0.00014670795644633472,-0.00014926922449376434,-122.04732513427734,212.4202880859375,-441.72711181640625,-194.56210327148438,147.03834533691406,-61.30878829956055,-110.84577941894531,166.43865966796875,0.2991371154785156,0.011676647700369358,-0.0017478340305387974,-0.006631471216678619,0.0014909415040165186,0.010760825127363205,0.00012801364937331527,-1.1986120625806507e-05,6.722285615978763e-05,-5.640321774080803e-07,-0.0,2283.22900390625,2624.7666015625,2389.683837890625,1856.2786865234375
1763361037.7896268,3139107394136596315,2285,28.807252883911133,30.499311447143555,54.177005767822266,53.36723709106445,-0.07353722304105759,-0.044926997274160385,-0.031068921089172363,-0.04000961408019066,-6.048380374908447,-3.1247730255126953,-1.6093252897262573,-3.312527656555176,0.0,0.0,0.0,0.0,0.001560404896736145,0.001659623347222805,0.0015546914655715227,0.0016654152423143387,0.001397156622260809,0.0014062421396374702,-0.00012378738028928638,-0.00012634268205147237,-121.30937957763672,213.2677459716797,-442.0987548828125,-195.1321563720703,147.1907196044922,-61.53947067260742,-111.08131408691406,166.15615844726562,0.2991371154785156,0.011686385609209538,-0.0017563530709594488,-0.006617919076234102,0.0014985008165240288,0.010759897530078888,0.00012864067684859037,0.001132478821091354,-7.443129288731143e-05,9.478622087044641e-05,-0.0,2282.26806640625,2624.33251953125,2388.79833984375,1855.87060546875
1763361038.832537,3139107394136596315,2306,28.80690574645996,30.49925994873047,54.17707824707031,53.36724090576172,-0.026710329577326775,-0.01195818092674017,-0.007152556907385588,0.001788139226846397,-1.8574295043945312,-0.8180736303329468,-0.7241963148117065,0.2816319167613983,0.0,0.0,0.0,0.0,0.0015598195604979992,0.0016586898127570748,0.0015541177708655596,0.001664474606513977,0.0013964979443699121,0.0014055800857022405,-0.00012376299127936363,-0.00012631753634195775,-121.21176147460938,213.31272888183594,-442.0325927734375,-195.11447143554688,147.11038208007812,-61.622615814208984,-111.12564086914062,166.05340576171875,0.29913330078125,0.01168582122772932,-0.001751815783791244,-0.006616730242967606,0.0014942954294383526,0.010760083794593811,0.00012828655599150807,0.00020333098655100912,-8.583068120060489e-05,1.6624106137896888e-05,-0.0,2282.7412109375,2624.7421875,2389.1611328125,1856.31494140625
1763361039.8842058,3139107394136596315,2327,28.80860137939453,30.49986457824707,54.177398681640625,53.36766052246094,0.03688037022948265,0.011175869964063168,0.0020116567611694336,0.016987323760986328,1.5288587808609009,-1.11311674118042,-1.5154478549957275,0.34868720173835754,0.0,0.0,0.0,0.0,0.0015584449283778667,0.0016604858683422208,0.0015526607166975737,0.001666366239078343,0.001399473287165165,0.0014085645088925958,-0.00013839353050570935,-0.00014094407379161566,-121.46327209472656,212.8356475830078,-442.09393310546875,-195.09129333496094,147.0218963623047,-61.3688850402832,-110.79398345947266,166.2881317138672,0.29913330078125,0.011678846552968025,-0.0017399686621502042,-0.006629663053900003,0.001483582891523838,0.010761972516775131,0.0001273915549973026,-0.0004291394434403628,-4.693865321314661e-06,-3.605440360843204e-05,-0.0,2283.70654296875,2624.953857421875,2389.7001953125,1856.677734375
1763361040.9385037,3139107394136596315,2348,28.8082218170166,30.499248504638672,54.17700958251953,53.36732864379883,-0.0014528630999848247,0.012852250598371029,-0.001788139226846397,-0.00022351740335579962,-0.40233129262924194,1.3612208366394043,-0.36209818720817566,0.09387730062007904,0.0,0.0,0.0,0.0,0.0015583663480356336,0.0016599114751443267,0.0015525814378634095,0.0016657710075378418,0.0013993941247463226,0.00140848895534873,-0.00013717649562750012,-0.00013972939632367343,-121.40637969970703,212.7139129638672,-441.9633483886719,-195.0887908935547,146.94686889648438,-61.37632369995117,-110.75416564941406,166.16331481933594,0.2991294860839844,0.011676505208015442,-0.00174847268499434,-0.006624478381127119,0.001491468632593751,0.010761997662484646,0.0001280551659874618,-2.7967615096713416e-05,-2.1178273527766578e-05,-2.2884339614392957e-06,-0.0,2283.376953125,2624.8388671875,2389.309814453125,1856.375244140625
1763361041.9883142,3139107394136596315,2370,28.809099197387695,30.499767303466797,54.17714309692383,53.36779022216797,0.0003352760977577418,-0.002570450073108077,0.001788139226846397,-0.0073760743252933025,-0.10058283060789108,-0.006705522071570158,0.1475214809179306,-0.7644294500350952,0.0,0.0,0.0,0.0,0.0015587289817631245,0.0016598347574472427,0.0015529629308730364,0.0016656924271956086,0.0013989127473905683,0.0014080059481784701,-0.0001361933391308412,-0.00013874424621462822,-121.32939147949219,212.74815368652344,-441.9538879394531,-195.1529998779297,146.94046020507812,-61.39175033569336,-110.71509552001953,166.13955688476562,0.29912567138671875,0.011676786467432976,-0.0017432284075766802,-0.0066253929398953915,0.0014866054989397526,0.010762259364128113,0.00012764445273205638,6.164889055071399e-05,-3.3527609843986284e-07,5.157489340490429e-06,-0.0,2283.4921875,2624.83544921875,2389.4189453125,1856.6083984375
1763361043.0385451,3139107394136596315,2391,28.808292388916016,30.498615264892578,54.1767578125,53.36733627319336,0.0024586913641542196,-0.0032410023268312216,0.00022351740335579962,-0.0029057261999696493,0.6370245814323425,-0.12069939821958542,0.08046625554561615,-0.21457669138908386,0.0,0.0,0.0,0.0,0.0015583172207698226,0.0016587962163612247,0.0015525569906458259,0.0016646196600049734,0.001398218795657158,0.0014073057100176811,-0.00013534554454963654,-0.00013789381773676723,-121.21388244628906,212.69180297851562,-441.79827880859375,-195.12083435058594,146.83642578125,-61.44559860229492,-110.70069122314453,165.97293090820312,0.29912567138671875,0.011674723587930202,-0.00175251136533916,-0.006619972642511129,0.0014951979974284768,0.010762597434222698,0.00012836696987506002,2.9581131457234733e-05,-7.655470653844532e-06,2.5276674477936467e-06,-0.0,2283.31689453125,2624.59130859375,2389.14990234375,1856.310546875
1763361044.077447,3139107394136596315,2412,28.80903434753418,30.499311447143555,54.17700958251953,53.36775588989258,0.01821666769683361,-0.00827014446258545,0.0006705521955154836,-0.0006705521955154836,2.3603436946868896,-0.05364420637488365,0.3486871123313904,-0.06705521792173386,0.0,0.0,0.0,0.0,0.001558685558848083,0.0016586853889748454,0.001552953035570681,0.001664492068812251,0.0013977409107610583,0.0014068296877667308,-0.0001342202303931117,-0.00013679696712642908,-121.13774871826172,212.72544860839844,-441.7985534667969,-195.19049072265625,146.8306884765625,-61.458621978759766,-110.66264343261719,165.94613647460938,0.2991218566894531,0.011675748974084854,-0.0017455173656344414,-0.006621124222874641,0.0014886896824464202,0.010762898251414299,0.00012781894474755973,-2.7331987439538352e-05,2.5704501240397803e-05,-2.2753372377337655e-06,-0.0,2283.70849609375,2624.64990234375,2389.337646484375,1856.6287841796875
1763361045.0863621,3139107394136596315,2432,28.80948829650879,30.4996395111084,54.1771125793457,53.368019104003906,0.0,0.0,0.0,0.0,-1.9043680429458618,0.22798775136470795,-0.8180736899375916,-1.9311901330947876,0.0,0.0,0.0,0.0,0.001558774965815246,0.0016583038959652185,0.001553068868815899,0.0016641125548630953,0.0013972579035907984,0.001406345865689218,-0.00013309445057529956,-0.00013567089627031237,-121.04175567626953,212.73878479003906,-441.8376770019531,-195.1588134765625,146.76571655273438,-61.484317779541016,-110.6616439819336,165.83139038085938,0.2991218566894531,0.011678430251777172,-0.0017388585256412625,-0.006622496992349625,0.0014824834652245045,0.0107624726369977,0.0001272965018870309,-0.00023479106312151998,-1.7266718714381568e-05,-1.970794801309239e-05,-0.0,2283.5234375,2624.796630859375,2389.509521484375,1856.775146484375
1763361046.1254199,3139107394136596315,2454,28.808792114257812,30.49919891357422,54.17686080932617,53.367671966552734,-0.019222496077418327,0.0005587934865616262,0.004246830940246582,0.00782310962677002,-2.4005768299102783,0.2212822139263153,0.38892027735710144,1.5422699451446533,0.0,0.0,0.0,0.0,0.0015585795044898987,0.0016576537163928151,0.0015528653748333454,0.0016634351341053843,0.0013972328742966056,0.0014063179260119796,-0.0001323380129178986,-0.00013491131539922208,-120.99067687988281,212.6209259033203,-441.66790771484375,-195.22317504882812,146.68246459960938,-61.505714416503906,-110.62699890136719,165.763427734375,0.2991180419921875,0.011675338260829449,-0.0017475220374763012,-0.006617169361561537,0.00149052357301116,0.010762790217995644,0.00012797171075362712,-3.563705467968248e-05,2.1234152427496156e-06,-3.005261305588647e-06,-0.0,2283.119140625,2624.674560546875,2389.22314453125,1856.7479248046875
1763361047.1287165,3139107394136596315,2474,28.809410095214844,30.499752044677734,54.177101135253906,53.36758041381836,0.018551943823695183,0.02816319279372692,0.02168118767440319,-0.021010635420680046,0.08717167377471924,0.6437300443649292,0.469386488199234,-2.923607349395752,0.0,0.0,0.0,0.0,0.0015585831133648753,0.001657260931096971,0.001552891219034791,0.0016630439786240458,0.0013966687256470323,0.0014057554071769118,-0.00013163792027626187,-0.000134211964905262,-120.90703582763672,212.64328002929688,-441.6416320800781,-195.0647735595703,146.651123046875,-61.53521728515625,-110.61526489257812,165.58934020996094,0.2991180419921875,0.011676455847918987,-0.0017422554083168507,-0.006619649473577738,0.0014856420457363129,0.010762972757220268,0.0001275600225199014,-0.0002830428711604327,2.8274951546336524e-05,-2.3946920919115655e-05,-0.0,2283.626708984375,2624.8916015625,2389.558349609375,1856.475341796875
1763361048.1863108,3139107394136596315,2495,28.809139251708984,30.498720169067383,54.176570892333984,53.36750411987305,0.01151114609092474,-0.002346932655200362,-0.0011175869731232524,-0.010058282874524593,1.4349815845489502,0.1341104358434677,0.1341104507446289,-1.8373128175735474,0.0,0.0,0.0,0.0,0.0015585782239213586,0.0016565273981541395,0.0015528996009379625,0.0016622885596007109,0.001395754050463438,0.0014048406155779958,-0.00013005765504203737,-0.00013263199070934206,-120.79698944091797,212.63865661621094,-441.56719970703125,-195.1909942626953,146.62490844726562,-61.5777587890625,-110.58125305175781,165.51560974121094,0.2991142272949219,0.011673511937260628,-0.0017509257886558771,-0.006613290868699551,0.0014936740044504404,0.010763484984636307,0.00012823560973629355,5.1450911996653304e-05,1.8328426449443214e-05,4.301836725062458e-06,-0.0,2283.613525390625,2624.467529296875,2389.05029296875,1856.379638671875
1763361049.2385724,3139107394136596315,2516,28.81032371520996,30.4996337890625,54.17689514160156,53.367881774902344,0.002570450073108077,0.0006705521955154836,-0.0008940696134231985,0.012293457053601742,-0.3755091726779938,0.053644172847270966,0.013411040417850018,1.5020368099212646,0.0,0.0,0.0,0.0,0.0015588724054396152,0.001656385837122798,0.0015531970420852304,0.0016621322138234973,0.0013956998009234667,0.0014047834556549788,-0.00012904407049063593,-0.00013161702372599393,-120.73925018310547,212.6251220703125,-441.5536193847656,-195.25225830078125,146.57154846191406,-61.58984375,-110.54937744140625,165.4835968017578,0.29911041259765625,0.011676199734210968,-0.0017418301431462169,-0.006614389829337597,0.0014851947780698538,0.010763044469058514,0.00012752212933264673,-4.712026202469133e-05,8.828937097860035e-06,-3.947352070099441e-06,-0.0,2283.6591796875,2624.6982421875,2389.212646484375,1856.993896484375
1763361050.279943,3139107394136596315,2538,28.810611724853516,30.499774932861328,54.17719650268555,53.367977142333984,0.04179775342345238,0.025369225069880486,0.02302229218184948,-0.003576278453692794,0.3956257998943329,-0.9857116341590881,-0.40233132243156433,-1.890956997871399,0.0,0.0,0.0,0.0,0.0015587228117510676,0.0016557530034333467,0.0015530773671343923,0.0016615018248558044,0.0013948834966868162,0.0014039630768820643,-0.00012839914415962994,-0.0001309702347498387,-120.63037109375,212.6761932373047,-441.49224853515625,-195.18310546875,146.5243682861328,-61.64139175415039,-110.54325866699219,165.3484649658203,0.29911041259765625,0.01167741697281599,-0.0017341207712888718,-0.006616863887757063,0.0014780443161725998,0.010763445869088173,0.0001269193453481421,-0.00047248785267584026,1.581385549798142e-05,-3.979133543907665e-05,-0.0,2283.990234375,2624.830322265625,2389.6435546875,1856.941650390625
1763361051.285054,3139107394136596315,2558,28.806386947631836,30.498363494873047,54.17595291137695,53.36749267578125,-0.06034969910979271,-0.01609325408935547,0.03553926572203636,-0.04336237534880638,-2.6017422676086426,2.152472496032715,6.222724437713623,-2.440809965133667,0.0,0.0,0.0,0.0,0.0015452110674232244,0.0016654308419674635,0.0015390451299026608,0.0016716830432415009,0.0014004216063767672,0.0014094971120357513,-0.0002064604195766151,-0.00020903792756143957,-121.02666473388672,211.82501220703125,-434.49560546875,-189.6181182861328,145.4146728515625,-60.688995361328125,-110.7037124633789,166.08969116210938,0.29911041259765625,0.011608527973294258,-0.0017572547076269984,-0.0066178482957184315,0.0015007418114691973,0.01078654546290636,0.0001288360945181921,0.0021741536911576986,0.013791303150355816,0.00018806631851475686,-0.0,2282.4384765625,2623.846435546875,2388.2041015625,1856.669189453125
1763361052.3339942,3139107394136596315,2579,28.806699752807617,30.49898338317871,54.17622375488281,53.367942810058594,-0.028833745047450066,0.010840593837201595,0.03151595592498779,-0.023245809599757195,-2.863257646560669,1.448392629623413,3.795325517654419,-2.5212762355804443,0.0,0.0,0.0,0.0,0.0015448288759216666,0.0016665274742990732,0.0015386298764497042,0.0016728308983147144,0.0014058937085792422,0.0014149696798995137,-0.00020673619292210788,-0.00020931322069372982,-120.00288391113281,211.1236114501953,-434.37255859375,-189.55435180664062,145.2035369873047,-60.49311828613281,-110.7201919555664,166.15335083007812,0.2991065979003906,0.011409730650484562,-0.001704431138932705,-0.00658405851572752,0.0014547922182828188,0.010573776438832283,0.00012489515938796103,-0.0002977950207423419,0.00101683649700135,-2.4441977075184695e-05,-0.0,2282.57958984375,2624.216796875,2388.32080078125,1857.161376953125
1763361053.3854272,3139107394136596315,2600,28.807737350463867,30.498077392578125,54.1756706237793,53.368221282958984,0.0,0.0,0.0,0.0,-0.8516013026237488,-7.094442367553711,-3.527104616165161,0.10728835314512253,0.0,0.0,0.0,0.0,0.001558405114337802,0.001656193402595818,0.0015527629293501377,0.001661922549828887,0.0013784330803900957,0.0013875255826860666,-0.00010554985783528537,-0.00010812331311171874,-119.02355194091797,214.270263671875,-443.0254211425781,-196.66737365722656,146.28347778320312,-61.7224006652832,-110.820556640625,165.180908203125,0.2991065979003906,0.0114618930965662,-0.001715353922918439,-0.006566187832504511,0.001463769469410181,0.010558035224676132,0.000125636623124592,-0.0010646273149177432,-0.013651381246745586,-9.489448711974546e-05,-0.0,2282.29150390625,2624.215576171875,2387.97607421875,1856.781982421875
1763361054.4352095,3139107394136596315,2621,28.807252883911133,30.498586654663086,54.17601776123047,53.368019104003906,-0.019669530913233757,-0.00782310962677002,0.04336237534880638,-0.03151595592498779,-2.527981758117676,-0.42244789004325867,4.197656631469727,-3.7014482021331787,0.0,0.0,0.0,0.0,0.0015459845308214426,0.0016649123281240463,0.001539849559776485,0.0016711269272491336,0.0013952340232208371,0.001404308364726603,-0.00019710429478436708,-0.00019967973639722914,-120.44730377197266,212.23992919921875,-434.897705078125,-190.17691040039062,145.33201599121094,-60.75632095336914,-110.67546081542969,165.90858459472656,0.299102783203125,0.011611380614340305,-0.0017464221455156803,-0.006617098115384579,0.0014906267169862986,0.010787013918161392,0.0001279810821870342,0.0019142449600622058,0.013819354586303234,0.00016565869736950845,-0.0,2282.830078125,2624.077880859375,2388.1591796875,1857.18798828125
1763361055.4751081,3139107394136596315,2642,28.807750701904297,30.49782943725586,54.17543411254883,53.368370056152344,-0.012181698344647884,-0.06571412086486816,-0.037550922483205795,-0.0037997958716005087,-1.046061396598816,-6.330012798309326,-3.030895709991455,0.05364416167140007,0.0,0.0,0.0,0.0,0.001558508607558906,0.001655169646255672,0.0015528921503573656,0.0016608708538115025,0.0013774596154689789,0.0013865517685189843,-0.00010316630505258217,-0.00010574003681540489,-118.8569564819336,214.23809814453125,-442.90087890625,-196.72459411621094,146.19296264648438,-61.782894134521484,-110.76329803466797,164.9885711669922,0.299102783203125,0.01146123930811882,-0.001716490020044148,-0.006561593618243933,0.001464792643673718,0.010558271780610085,0.00012572169362101704,-0.0010669393232092261,-0.01367406826466322,-9.50822068261914e-05,-0.0,2282.294677734375,2624.15283203125,2387.793701171875,1856.8519287109375
