timestamp,session_uid,frame,suspension_pos_rl,suspension_pos_rr,suspension_pos_fl,suspension_pos_fr,suspension_vel_rl,suspension_vel_rr,suspension_vel_fl,suspension_vel_fr,suspension_acc_rl,suspension_acc_rr,suspension_acc_fl,suspension_acc_fr,wheel_speed_rl,wheel_speed_rr,wheel_speed_fl,wheel_speed_fr,wheel_slip_ratio_rl,wheel_slip_ratio_rr,wheel_slip_ratio_fl,wheel_slip_ratio_fr,wheel_slip_angle_rl,wheel_slip_angle_rr,wheel_slip_angle_fl,wheel_slip_angle_fr,wheel_lat_force_rl,wheel_lat_force_rr,wheel_lat_force_fl,wheel_lat_force_fr,wheel_long_force_rl,wheel_long_force_rr,wheel_long_force_fl,wheel_long_force_fr,height_of_cog,local_velocity_x,local_velocity_y,local_velocity_z,angular_velocity_x,angular_velocity_y,angular_velocity_z,angular_acceleration_x,angular_acceleration_y,angular_acceleration_z,front_wheels_angle,wheel_vert_force_rl,wheel_vert_force_rr,wheel_vert_force_fl,wheel_vert_force_fr
1767765837.3446221,16137296052353762183,0,31.62934684753418,31.512304306030273,53.561344146728516,53.69205856323242,1.8338677883148193,-1.446329951286316,0.9737139344215393,-1.4909822940826416,87.82070922851562,-142.45272827148438,39.88491439819336,-157.69866943359375,0.0,0.0,0.0,0.0,-0.00034970600972883403,-0.00036746973637491465,-0.00034791947109624743,-0.0003683925315272063,-0.0004255637468304485,-0.0004274946404621005,-0.00023939846141729504,-0.00023895350750535727,-52.62504959106445,156.26641845703125,-70.35590362548828,172.61761474609375,-76.36071014404297,-67.33710479736328,134.3687286376953,128.309814453125,0.300933837890625,-0.0029906141571700573,0.004398832563310862,7.354495028266683e-05,0.000979781849309802,-0.000787066703196615,-0.0020545567385852337,0.16438688337802887,-0.02384311519563198,-0.11807925999164581,-0.0,2392.9228515625,2362.56787109375,1980.28076171875,2055.395263671875
1767765838.3597755,16137296052353762183,20,28.82068634033203,28.652584075927734,53.55923843383789,53.651180267333984,0.1033354252576828,-0.3108050227165222,0.4277188181877136,-0.6539585590362549,-0.9976287484169006,-41.123661041259766,72.79740905761719,-33.01731872558594,0.0,0.0,0.0,0.0,-0.00039282446959987283,-0.00030994092230685055,-0.0003931425744667649,-0.00030909283668734133,-0.00022648995218332857,-0.00022934548906050622,-0.00026085993158631027,-0.0002596033154986799,-69.72067260742188,104.14057922363281,-64.55397033691406,143.8882598876953,-77.2284164428711,-62.162620544433594,134.86732482910156,137.377685546875,0.3035461902618408,-0.0006440423312596977,-0.0018808521563187242,-0.0007529989816248417,0.005692789331078529,0.00038404951919801533,0.003942348062992096,0.1144649088382721,0.12901821732521057,0.19766035676002502,-0.0,2446.205322265625,2410.793212890625,1971.33740234375,2032.7108154296875
1767765839.360827,16137296052353762183,40,28.77741241455078,28.546527862548828,53.57969284057617,53.63756561279297,0.3213560879230499,1.2160598039627075,-0.2655671536922455,0.06896819174289703,31.304746627807617,125.10325622558594,-28.803253173828125,8.04018783569336,0.0,0.0,0.0,0.0,-0.0003165097441524267,-0.00031013699481263757,-0.00031476287404075265,-0.0003102684277109802,-0.00023415512987412512,-0.00023629590577911586,-9.881065489025787e-05,-9.787593444343656e-05,-74.12980651855469,99.21673583984375,-72.24713134765625,136.88385009765625,-72.54886627197266,-59.77943801879883,140.87620544433594,138.3150177001953,0.30359387397766113,-0.0017673758557066321,0.0031876421999186277,0.00022609520237892866,0.0030280682258307934,-0.0008761301869526505,0.0012377436505630612,-0.004313868470489979,0.028258228674530983,0.10850244760513306,-0.0,2441.774658203125,2403.75390625,1983.2786865234375,2027.8187255859375
1767765840.4094622,16137296052353762183,61,28.775251388549805,28.52646255493164,53.58564376831055,53.63534927368164,-0.3403129577636719,-1.1588176488876343,0.23798783123493195,-0.02562945894896984,-35.54148864746094,-121.48698425292969,26.51531410217285,-3.6184427738189697,0.0,0.0,0.0,0.0,-0.0003408796910662204,-0.00036265436210669577,-0.0003399565175641328,-0.0003664241812657565,-0.0005673202103935182,-0.0005701217451132834,-0.0003743476408999413,-0.00037310781772248447,-38.43414306640625,130.76644897460938,-50.714569091796875,157.0625457763672,-77.0872573852539,-65.12177276611328,133.52867126464844,129.03396606445312,0.30361342430114746,0.0003837836848106235,0.0007147782598622143,-0.00028355119866319,0.0032081587705761194,-0.001471805153414607,-0.0007959161303006113,0.007655355613678694,-0.029281187802553177,-0.1037459671497345,-0.0,2425.798828125,2382.71240234375,1987.409912109375,2024.9539794921875
1767765841.41119,16137296052353762183,81,28.779481887817383,28.527481079101562,53.58632278442383,53.634185791015625,-0.3099726736545563,-1.1545485258102417,0.27196723222732544,-0.027410564944148064,-32.47380447387695,-120.76568603515625,28.42683219909668,-4.601437568664551,0.0,0.0,0.0,0.0,-0.0003285862330812961,-0.0003466048219706863,-0.0003277513606008142,-0.0003503448097035289,-0.0005738014006055892,-0.000576480757445097,-0.00039031566120684147,-0.0003891315427608788,-39.34391403198242,129.8673858642578,-50.72910690307617,157.25038146972656,-77.61321258544922,-65.28997802734375,133.54998779296875,129.57254028320312,0.30361104011535645,0.00038881966611370444,0.0007811601390130818,-0.0002571302466094494,0.003209588583558798,-0.0014647053321823478,-0.0007770743686705828,0.006717811804264784,-0.027545394375920296,-0.1053161546587944,-0.0,2426.6005859375,2382.639404296875,1988.0283203125,2024.387939453125
1767765842.4523294,16137296052353762183,102,28.769866943359375,28.521955490112305,53.58253860473633,53.634220123291016,-0.3484209477901459,-1.227783203125,0.27181360125541687,0.043269891291856766,-36.42707443237305,-125.69043731689453,27.495576858520508,-0.2437613159418106,0.0,0.0,0.0,0.0,-0.00030256807804107666,-0.0003223201783839613,-0.0003017818962689489,-0.00032619331614114344,-0.0005667309160344303,-0.0005690666730515659,-0.0003959121531806886,-0.0003948771336581558,-41.65143966674805,127.98839569091797,-49.8133544921875,157.6189727783203,-76.67201232910156,-64.18460083007812,134.48794555664062,131.99713134765625,0.3036196231842041,0.0004988170694559813,0.0006781033589504659,-0.000296185229672119,0.003211159026250243,-0.0014339203480631113,-0.0007519731880165637,0.011273982003331184,-0.03443548455834389,-0.09808582812547684,-0.0,2424.35986328125,2381.6025390625,1985.9173583984375,2022.925537109375
1767765843.459016,16137296052353762183,122,28.777969360351562,28.527732849121094,53.584869384765625,53.63311004638672,-0.2921636998653412,-1.1870664358139038,0.3091217875480652,-0.0761660635471344,-30.640562057495117,-123.75308227539062,31.289823532104492,-6.649168968200684,0.0,0.0,0.0,0.0,-0.00031727468012832105,-0.00033560098381713033,-0.00031650555320084095,-0.00033949187491089106,-0.0005757101462222636,-0.0005782154039479792,-0.0003982400812674314,-0.000397130090277642,-40.05596923828125,128.30809020996094,-49.973060607910156,157.37562561035156,-80.17430877685547,-65.92155456542969,132.6491241455078,130.23568725585938,0.30361008644104004,0.0004629002942238003,0.0007630800828337669,-0.00026471915771253407,0.003202741965651512,-0.0014848997816443443,-0.000872596341650933,0.004635167308151722,-0.025742867961525917,-0.11260204762220383,-0.0,2425.94873046875,2382.072998046875,1986.915283203125,2023.69921875
1767765844.497056,16137296052353762183,143,33.035884857177734,33.28361892700195,53.260986328125,53.29024887084961,0.7611382007598877,0.16311508417129517,-0.6212130188941956,-0.14700010418891907,51.934696197509766,28.096616744995117,-14.0941743850708,11.046174049377441,19.072629928588867,18.939777374267578,4.960886478424072,4.990814685821533,2.42874813079834,2.3990697860717773,-0.00133200129494071,-0.0013176286593079567,-0.008327472023665905,-0.014384054578840733,-0.00158002192620188,0.0006289007142186165,-117.4211196899414,211.12295532226562,54.982357025146484,36.848209381103516,4410.67431640625,4505.6611328125,158.8634796142578,159.36862182617188,0.3009493350982666,-0.039840567857027054,0.02315393090248108,5.023829460144043,-0.0003726199793163687,0.019123846665024757,-0.0007578477961942554,-0.007306812796741724,0.03649631142616272,-0.04432044178247452,-0.0,2740.839599609375,2803.7626953125,1718.5478515625,1745.7308349609375
1767765845.5548198,16137296052353762183,164,33.24767303466797,33.20226287841797,53.45195388793945,53.62444305419922,6.045989036560059,5.668091297149658,1.5294148921966553,2.3819854259490967,-220.41575622558594,-544.0226440429688,-153.411865234375,-194.866455078125,10.98650074005127,10.985033988952637,10.426552772521973,10.493905067443848,0.04563509300351143,0.04570241644978523,-0.001160432118922472,-0.0011042575351893902,0.003405550727620721,-0.004216185305267572,-0.0017869024304673076,0.0010561398230493069,-591.8812255859375,679.716796875,57.84703826904297,16.679485321044922,4390.64990234375,4392.080078125,149.26809692382812,-147.41207885742188,0.3003807067871094,-0.004345707129687071,0.05426546931266785,10.485148429870605,0.0016874128486961126,-0.00033654418075457215,0.0023647749330848455,0.14768195152282715,-0.012613148428499699,0.01332138106226921,-0.0,2932.783203125,2930.44580078125,1887.7689208984375,1982.837890625
1767765846.5611577,16137296052353762183,184,28.579015731811523,28.798166275024414,53.70931625366211,53.72217559814453,28.193265914916992,28.716846466064453,-1.948837399482727,-2.0073044300079346,1542.9874267578125,1583.911865234375,-104.84103393554688,-96.70733642578125,8.017927169799805,7.974484920501709,7.584330081939697,7.585302352905273,0.06589613854885101,0.06399890035390854,-0.0013904988300055265,-0.0013929804554209113,0.0026972454506903887,-0.0035339794121682644,-0.0017522680573165417,0.0010639007668942213,-357.85565185546875,438.3522644042969,53.868927001953125,12.1994047164917,4148.625,4207.74365234375,-182.12083435058594,-183.6893768310547,0.30411815643310547,-0.0031681193504482508,0.03904532641172409,7.576733589172363,0.01675064116716385,-0.0002143338497262448,-0.017170537263154984,0.9347668886184692,-0.00011886290303664282,-0.9622234106063843,-0.0,2351.7294921875,2408.883544921875,2028.5614013671875,2043.256591796875
1767765847.6080978,16137296052353762183,205,33.18998336791992,33.6710205078125,53.3939208984375,53.33963394165039,1.8568965196609497,-2.145458936691284,-1.491921067237854,-0.5912682414054871,58.43866729736328,-265.1555480957031,146.34671020507812,85.30411529541016,16.507328033447266,16.47286033630371,15.736756324768066,15.736005783081055,0.047315847128629684,0.045107364654541016,-0.001038117683492601,-0.0010409741662442684,0.003495714394375682,-0.00419392716139555,-0.0018278372008353472,0.0009767294395714998,-602.2391357421875,689.8731079101562,66.2247543334961,14.77518367767334,4407.23583984375,4435.068359375,-131.25164794921875,-130.86358642578125,0.3006727695465088,-0.005739495158195496,0.06858278065919876,15.752459526062012,-0.004031804855912924,-0.0002891755138989538,0.0023811820428818464,-0.04714624956250191,0.00454159639775753,0.06887749582529068,-0.0,2857.89306640625,2948.673828125,1786.765380859375,1767.037109375
1767765848.6445818,16137296052353762183,226,36.228797912597656,36.12864685058594,53.31913375854492,53.681095123291016,-7.613189697265625,15.066086769104004,-3.951777219772339,2.156294345855713,-555.4888305664062,788.4227905273438,-327.51812744140625,232.3563995361328,28.951885223388672,28.87786865234375,24.66535758972168,24.7464656829834,0.16489781439304352,0.16280828416347504,-0.0012045493349432945,-0.001347642857581377,0.001325310324318707,-0.0069172075018286705,-0.007821537554264069,-0.0061598350293934345,-239.5440673828125,522.927001953125,664.9196166992188,859.9813842773438,5631.494140625,5887.35693359375,-145.1603546142578,-194.33453369140625,0.2989232540130615,0.006331732030957937,0.08869840204715729,24.737646102905273,-0.0203693900257349,0.04975008964538574,-0.021121956408023834,-0.7310752868652344,1.660628080368042,-0.7209755778312683,-0.009938742965459824,3220.739013671875,3341.051513671875,1689.268798828125,2054.854248046875
1767765849.64713,16137296052353762183,246,28.663894653320312,36.00766372680664,50.217857360839844,56.292510986328125,-101.23182678222656,-23.640195846557617,14.60302448272705,-57.00227737426758,-93.25117492675781,-2111.72265625,831.4315185546875,-3166.224609375,33.770931243896484,33.197940826416016,31.759286880493164,32.943275451660156,0.04414002597332001,0.015888761729002,-0.028130384162068367,0.000463983480585739,-0.1113046407699585,-0.11806841939687729,-0.028978340327739716,-0.03275159373879433,2417.93505859375,8667.791015625,0.0,3769.751708984375,1055.9639892578125,1458.1263427734375,-0.0,85.8731918334961,0.30047154426574707,-3.447430372238159,0.20222730934619904,32.68233108520508,0.13625846803188324,0.13894213736057281,0.12077920138835907,2.697417974472046,-6.803445816040039,2.9207684993743896,0.06873039901256561,1355.3271484375,4774.052734375,0.0,3667.9150390625
1767765850.6629462,16137296052353762183,266,24.088850021362305,32.533912658691406,56.667724609375,55.160831451416016,-132.3242950439453,382.0577392578125,-55.19027328491211,86.08616638183594,5154.01220703125,14546.591796875,-3600.932373046875,-1548.0262451171875,29.370311737060547,28.116506576538086,30.153072357177734,27.402421951293945,-0.026021858677268028,0.032740917056798935,0.0012725366977974772,0.0006641982472501695,0.15822681784629822,0.16686701774597168,0.031059330329298973,0.022589880973100662,-3860.757568359375,-5081.53662109375,-3189.965576171875,-1607.3636474609375,-728.0650634765625,1329.8817138671875,217.69273376464844,-114.32058715820312,0.29865169525146484,1.9703766107559204,0.07531210780143738,28.74056625366211,0.08579990267753601,-1.7002665996551514,0.017853472381830215,12.16655445098877,5.143278121948242,8.665933609008789,0.08125803619623184,2416.1171875,4383.7373046875,3419.321044921875,2902.75537109375
1767765851.7049048,16137296052353762183,287,34.28022003173828,29.18958854675293,54.516357421875,53.4672966003418,381.7890930175781,-25.87510108947754,8.076787948608398,-53.94790267944336,25791.6640625,-1657.3236083984375,-4180.7685546875,278.08441162109375,24.739063262939453,24.752986907958984,24.883121490478516,24.865053176879883,-0.005882085766643286,-0.005348237231373787,0.00040106760570779443,0.0002862953406292945,0.004163816105574369,-0.0023036240600049496,-0.0012885506730526686,0.0018826794112101197,-731.9684448242188,446.5848083496094,0.0,-82.41220092773438,-832.4322509765625,-722.1315307617188,0.0,35.14750289916992,0.30686187744140625,0.01840726099908352,0.16082823276519775,24.858943939208984,-0.0376020222902298,-0.003068908117711544,-0.035535022616386414,-7.041714191436768,0.7879838347434998,-3.3192331790924072,-0.0,5901.8701171875,3102.5556640625,2270.4833984375,1965.392333984375
1767765852.7088125,16137296052353762183,307,23.72111701965332,41.581153869628906,53.141639709472656,55.532386779785156,-90.69256591796875,45.167789459228516,13.819150924682617,-3.82529878616333,772.0087890625,-2922.968994140625,1642.1064453125,-2079.32861328125,41.47809982299805,38.17827224731445,27.44019317626953,29.657703399658203,0.5193679928779602,0.3048481047153473,0.00671516265720129,0.0010140292579308152,-0.3511984050273895,-0.33384016156196594,-0.17839166522026062,-0.16161873936653137,0.0,5914.69970703125,1878.4521484375,5935.62646484375,0.0,4952.5322265625,113.03363800048828,63.84233856201172,0.3093290328979492,-7.779540538787842,0.2545028030872345,28.42704963684082,-0.0745927020907402,1.4663679599761963,-0.06780222058296204,3.793980360031128,3.272876024246216,1.11543607711792,-0.0,1009.6871337890625,5130.837890625,1718.414306640625,3754.990478515625
1767765853.7612574,16137296052353762183,328,29.869958877563477,29.27626609802246,51.57632827758789,54.7800178527832,192.09033203125,-89.7438735961914,-37.03632736206055,-17.967670440673828,7752.30859375,-11320.998046875,7311.6318359375,-6032.9306640625,22.821979522705078,22.783496856689453,22.947242736816406,22.994556427001953,-0.005783961154520512,-0.00789015181362629,0.00022403878392651677,1.0317809028492775e-05,0.00030038406839594245,-0.006236211396753788,-6.804816803196445e-05,0.002815430983901024,-116.49040985107422,584.9915771484375,0.0,-0.0,-450.1827087402344,-526.7077026367188,-0.0,0.0,0.30149269104003906,-0.021583236753940582,0.05558416247367859,22.938634872436523,0.053910210728645325,0.02599942870438099,0.13770584762096405,2.4891059398651123,-0.2770107686519623,6.445835590362549,-0.0005745762027800083,3324.495361328125,2477.71044921875,710.7236938476562,2486.266845703125
1767765854.7958202,16137296052353762183,349,31.16682243347168,33.131439208984375,56.973838806152344,56.544281005859375,56.9544563293457,-190.821044921875,311.1164855957031,56.69355010986328,8844.94140625,-16381.869140625,23449.748046875,-8628.421875,37.164886474609375,36.97318649291992,25.033727645874023,24.95746612548828,0.4867085814476013,0.49816080927848816,-0.00027706543914973736,-0.0006110625108703971,0.014917307533323765,0.007289606612175703,0.0029840858187526464,0.005696038715541363,-0.0,19.145809173583984,-632.189697265625,-195.29397583007812,0.0,2190.468505859375,47.47874450683594,-102.36102294921875,0.3005104064941406,0.19792699813842773,0.15956827998161316,24.977304458618164,0.09396979212760925,-0.053828950971364975,0.028652576729655266,7.220607757568359,-0.8463584184646606,-6.040995121002197,-0.0,2689.462890625,1823.8585205078125,5691.638671875,4944.3974609375
1767765855.7975552,16137296052353762183,370,29.277463912963867,34.2881965637207,52.98093032836914,55.9573974609375,-330.6763916015625,-55.46591567993164,36.29426193237305,-54.64250946044922,-12662.4306640625,-2501.889892578125,7082.57275390625,-10413.287109375,39.39838790893555,38.9520378112793,24.929231643676758,24.909881591796875,0.5618940591812134,0.5369149446487427,0.00014605508476961404,-5.3469750127987936e-05,0.007135023828595877,-0.0009576128795742989,0.0009258074569515884,0.004185569938272238,-0.0,0.0,-0.0,-204.1842041015625,0.0,0.0,0.0,4.620225429534912,0.30103611946105957,0.053900137543678284,0.09035420417785645,24.894350051879883,0.24309100210666656,-0.004220990464091301,0.12182798236608505,12.628008842468262,0.1977042853832245,6.585155010223389,-0.0,469.61090087890625,1730.9178466796875,2311.16748046875,2830.318603515625
1767765856.8060775,16137296052353762183,390,34.638675689697266,34.636451721191406,53.49106979370117,53.99740219116211,-103.3721694946289,28.126049041748047,-21.612058639526367,16.99118995666504,-421.31048583984375,4800.69384765625,-9165.6640625,1910.950927734375,40.203407287597656,39.056182861328125,29.70543670654297,29.99360466003418,0.3614634871482849,0.3105126917362213,-0.0013316739350557327,-0.0009892539819702506,-0.018917251378297806,-0.026837868615984917,-0.006821963004767895,-0.0038381761405617,122.18946838378906,658.8466186523438,0.0,527.512939453125,3450.489990234375,4668.24560546875,-0.0,-125.99380493164062,0.3034951686859131,-0.453891396522522,0.09278213977813721,29.897186279296875,0.018704045563936234,0.14961674809455872,-0.00288461335003376,0.40963655710220337,0.880193293094635,-2.076679229736328,-0.0,2715.943359375,3078.1162109375,2142.91796875,2405.091552734375
1767765857.8100939,16137296052353762183,410,33.21543502807617,28.631732940673828,54.8962516784668,51.02857971191406,75.44414520263672,15.483330726623535,-55.414913177490234,-49.939002990722656,4165.18994140625,13904.771484375,-6898.72119140625,5577.21484375,30.813308715820312,30.68579864501953,31.106992721557617,30.97445297241211,-0.009089258499443531,-0.007624604739248753,0.00043524630018509924,0.002854014979675412,0.012311051599681377,0.005487900227308273,0.02945600636303425,0.028428208082914352,-1310.7783203125,-430.6328430175781,-258.54327392578125,-0.0,-851.7964477539062,-828.2626953125,4.331299304962158,0.0,0.30559468269348145,0.06037237122654915,0.16702811419963837,30.968608856201172,-0.19042366743087769,-0.1311093121767044,-0.09257953613996506,-11.018823623657227,-0.07540059089660645,-5.569709777832031,0.03840130195021629,3806.439697265625,3566.8388671875,1967.3538818359375,548.9122924804688
1767765858.844649,16137296052353762183,431,27.812517166137695,33.55164337158203,51.89547348022461,55.90000534057617,-183.559326171875,89.92108154296875,-30.273452758789062,2.3569388389587402,-2065.419677734375,-6061.05615234375,7321.2421875,1943.2913818359375,29.46255111694336,28.80913543701172,27.287912368774414,27.31051254272461,0.04975612834095955,0.03780543804168701,-0.00027519938885234296,-0.00021564218332059681,0.012322667054831982,0.005064832977950573,0.008920082822442055,0.012023045681416988,-0.0,-278.36248779296875,-0.0,-746.0277709960938,0.0,1691.48828125,-0.0,-28.825849533081055,0.30297398567199707,0.23961688578128815,0.12807869911193848,27.293201446533203,0.2345878928899765,0.01523123774677515,0.2042493224143982,13.715107917785645,0.5138628482818604,14.3782377243042,-0.0,1476.4884033203125,3451.332275390625,646.3944091796875,3982.9482421875
1767765859.8525257,16137296052353762183,451,33.49390411376953,34.09745407104492,54.570987701416016,54.490509033203125,-49.91634750366211,-82.150390625,8.499601364135742,-5.396240711212158,-136.6793670654297,44.70106506347656,-944.8682861328125,-700.5802612304688,32.41450119018555,32.417232513427734,32.577178955078125,32.57170486450195,-0.004785669036209583,-0.004511651583015919,0.00014763438957743347,0.00015477593115065247,0.0031889339443296194,-0.004853125661611557,-0.0027487275656312704,0.00043441468733362854,-623.5625610351562,891.9672241210938,99.4539794921875,127.48493957519531,-613.1992797851562,-616.4431762695312,21.751306533813477,22.381023406982422,0.298761248588562,-0.0285307876765728,0.23391854763031006,32.56812286376953,-0.010497566312551498,-0.004230275750160217,0.019282512366771698,0.3857521712779999,-0.02401909977197647,-0.7786913514137268,-0.0,3006.099365234375,3269.250244140625,2695.673583984375,2650.3544921875
1767765860.85516,16137296052353762183,471,31.201969146728516,31.579862594604492,54.36482238769531,54.081485748291016,-2.047759532928467,3.0952720642089844,-0.7211863398551941,-2.6994268894195557,-21.494487762451172,44.30495071411133,-27.582059860229492,-50.30924606323242,31.837926864624023,31.841819763183594,31.990793228149414,31.990835189819336,-0.004618835635483265,-0.004497331567108631,0.0001514224277343601,0.00016091596626210958,0.004010159056633711,-0.0032214978709816933,-0.0011815151665359735,0.0019187822472304106,-774.306884765625,666.4467163085938,-48.49907684326172,-43.49325942993164,-633.6195068359375,-638.1773681640625,22.236806869506836,22.947450637817383,0.3005387783050537,0.013338085263967514,0.18597759306430817,31.9862060546875,-0.0024979452136904,-3.123015630990267e-05,-0.011097651906311512,-0.14839668571949005,-0.006895663682371378,-0.000981291988864541,-0.0,3130.7890625,3209.315185546875,2504.177001953125,2332.11572265625
1767765861.909075,16137296052353762183,492,29.219148635864258,32.429073333740234,56.46100997924805,51.84926223754883,-11.13827896118164,7.6393914222717285,-3.810349941253662,2.453923463821411,-629.5922241210938,533.83740234375,-630.1566162109375,352.36224365234375,32.95234680175781,32.69038009643555,33.160736083984375,32.790061950683594,-0.005837875418365002,-0.0030387421138584614,0.00017406219558324665,0.00018080520385410637,0.01487086620181799,0.007869898341596127,0.010197306051850319,0.01037221122533083,-2454.841064453125,-1115.3568115234375,-1535.0491943359375,-685.1932983398438,-785.4124755859375,-440.5840759277344,33.87519836425781,14.654793739318848,0.2924022674560547,-0.0009401743300259113,0.22568774223327637,32.96849060058594,-0.09538117051124573,-0.2319079041481018,-0.10240232944488525,-0.9669304490089417,1.1266436576843262,-1.5753504037857056,0.026342008262872696,2998.854248046875,3045.569091796875,3793.195068359375,1051.271240234375
1767765862.956764,16137296052353762183,513,31.314987182617188,25.98265838623047,56.10211181640625,51.54397964477539,-10.974444389343262,0.6567212343215942,12.119094848632812,-7.096001148223877,49.80483627319336,-74.66556549072266,1034.8594970703125,-278.18927001953125,23.289011001586914,22.573057174682617,23.535114288330078,22.525636672973633,-0.008726652711629868,0.00391211686655879,0.00022966013057157397,0.0012763175182044506,0.029392223805189133,0.023967234417796135,0.06539538502693176,0.05098650977015495,-4488.45703125,-2099.839599609375,-6040.06396484375,-1185.750732421875,-1298.70068359375,308.4170227050781,33.91366958618164,40.5305061340332,0.3038804531097412,-0.4850148558616638,0.14232705533504486,22.98878288269043,-0.021904356777668,-0.6578112244606018,-0.008094888180494308,-0.019705208018422127,-0.6929740309715271,-0.12627017498016357,0.14227469265460968,3855.23095703125,1459.458984375,3913.484130859375,733.1718139648438
1767765864.0097787,16137296052353762183,534,39.341468811035156,27.03791046142578,51.69062805175781,58.000728607177734,-136.7406005859375,70.8182601928711,-59.60489273071289,189.84681701660156,-3624.4833984375,62.03010559082031,228.51278686523438,13245.6123046875,28.335010528564453,30.016464233398438,19.197254180908203,17.964244842529297,0.45577457547187805,0.6364978551864624,-0.002704372862353921,-0.0005704381037503481,0.15415190160274506,0.15643341839313507,0.017216075211763382,0.019014742225408554,-2038.4990234375,-698.802001953125,-786.218505859375,-1223.98974609375,5311.17236328125,2804.166015625,-129.04116821289062,-78.18914031982422,0.3168065547943115,1.635214924812317,0.14197683334350586,18.59951400756836,0.045566730201244354,-0.7790853977203369,0.008639349602162838,3.6524698734283447,-0.42470383644104004,7.282145023345947,0.013911005109548569,4554.75732421875,1761.9888916015625,1816.1392822265625,4194.1611328125
1767765865.0433037,16137296052353762183,555,32.71815872192383,24.61858367919922,54.929725646972656,54.21579360961914,-30.70536231994629,12.042888641357422,147.97657775878906,-17.95461082458496,1118.69384765625,-5548.44970703125,7186.6923828125,-1110.380126953125,13.772821426391602,14.350872039794922,13.917241096496582,15.990570068359375,0.011693714186549187,-0.06860941648483276,0.004565709736198187,0.005752109456807375,0.04680783674120903,0.03436954319477081,0.27154988050460815,0.22224703431129456,-1770.3201904296875,-659.1231079101562,-5515.1015625,-3635.015625,443.6141052246094,-1138.2991943359375,-179.5153045654297,186.52996826171875,0.31212925910949707,2.525968074798584,0.1388668715953827,14.516335487365723,-0.1585889756679535,1.208938479423523,0.26650765538215637,-1.1545467376708984,-3.669802665710449,3.0084474086761475,-0.08683402091264725,3187.968505859375,1825.29150390625,3550.53369140625,2274.9287109375
1767765866.0449078,16137296052353762183,575,32.42808151245117,24.666065216064453,54.06698989868164,56.32563400268555,26.908212661743164,-36.368980407714844,-35.05839920043945,-67.8033218383789,5353.46728515625,-1577.0948486328125,-4780.28076171875,-10631.9384765625,11.331460952758789,11.368630409240723,11.31918716430664,11.370307922363281,0.00014809449203312397,-6.574323924724013e-05,-3.398481567273848e-05,0.00030385414720512927,0.0014329596888273954,-0.005207275040447712,0.004928783513605595,0.008711853064596653,-0.0,733.7769775390625,-253.3310089111328,-482.2720031738281,-0.0,6.84723424911499,-1.873358964920044,27.256669998168945,0.31485843658447266,0.04934607073664665,0.10754872858524323,11.339990615844727,0.13580144941806793,0.047845155000686646,0.029178790748119354,2.4689877033233643,-0.11004256457090378,-2.215289831161499,-0.0,3111.401123046875,1382.009033203125,2460.755859375,3360.589599609375
1767765867.057176,16137296052353762183,595,31.266033172607422,30.12801742553711,53.50392532348633,55.61029815673828,72.76121520996094,32.968318939208984,-88.58972930908203,11.544316291809082,-4134.380859375,4821.97607421875,-5684.9189453125,262.60260009765625,10.22114086151123,10.20233154296875,10.234371185302734,10.218096733093262,0.0001767022185958922,-7.589608139824122e-05,0.0005083220894448459,-0.0013644823338836432,0.0020108656026422977,-0.004808328114449978,-0.00903406087309122,-0.00556590873748064,-419.0267028808594,406.04779052734375,0.0,715.8384399414062,23.534154891967773,-4.318185329437256,0.0,-198.015625,0.3063250780105591,-0.03911826014518738,0.11339583247900009,10.196765899658203,0.0035881681833416224,-0.004845554940402508,-0.005509085953235626,-2.9337260723114014,1.4414517879486084,-2.79656982421875,-0.0,3237.132080078125,2732.21044921875,1309.1575927734375,2419.429443359375
1767765868.0972893,16137296052353762183,616,26.880767822265625,31.28804588317871,56.00095748901367,52.82021713256836,22.80493927001953,-62.66534423828125,13.384600639343262,7.669508457183838,244.12632751464844,-8395.23046875,-7642.9013671875,2294.168701171875,8.949782371520996,8.948819160461426,8.951297760009766,8.938445091247559,-0.00020208265050314367,-7.260506390593946e-05,-0.0006504372577182949,-0.0005107446922920644,0.003611119231209159,-0.0031229553278535604,-0.002772448817268014,0.00027549127116799355,-0.0,313.86822509765625,63.77153778076172,0.0,-0.0,-4.813605785369873,86.28472900390625,-0.0,0.30776798725128174,-0.0005111194914206862,0.009772971272468567,8.932626724243164,-0.015103917568922043,-0.008040990680456161,-0.016981646418571472,0.18527381122112274,-0.653433084487915,-4.830505847930908,-0.0,994.00927734375,3353.006591796875,3151.931884765625,1807.779296875
1767765869.102047,16137296052353762183,636,28.87959098815918,28.24932289123535,52.06853485107422,55.244667053222656,-411.9287414550781,388.42901611328125,-112.71620178222656,110.50847625732422,-30874.734375,29956.99609375,-6356.64404296875,5036.32666015625,7.705863952636719,7.720375061035156,7.712935447692871,7.715902328491211,0.00046443534665741026,0.0002604680194053799,0.0006206503603607416,-0.00014751448179595172,0.0028899924363940954,-0.003236794611439109,-0.0019141999073326588,0.0008046647417359054,-401.2071533203125,0.0,64.13246154785156,-16.849634170532227,46.90504455566406,-0.0,36.02357482910156,-8.36036491394043,0.31728100776672363,0.0016700511332601309,0.08187013119459152,7.704039096832275,-0.04041718691587448,0.009612699039280415,-0.24908500909805298,2.3201866149902344,0.310907244682312,10.228283882141113,-0.0,1856.5977783203125,2694.305419921875,1330.4056396484375,2580.2919921875
1767765870.1457236,16137296052353762183,657,31.53321075439453,24.469356536865234,52.44426345825195,58.52738952636719,108.05194854736328,-48.22263717651367,-155.1195068359375,117.91495513916016,8748.3173828125,-3229.566650390625,-16349.6279296875,-1283.3209228515625,0.0,0.0,0.0,0.0,-0.6097105741500854,-0.6039283871650696,-0.6099712252616882,-0.6039494872093201,0.007342908065766096,0.0037138552870601416,-0.009960786439478397,-0.00788037572056055,-46.68220901489258,-14.958335876464844,35.216705322265625,57.80754852294922,-3609.301025390625,-2189.037841796875,-2149.26318359375,-4355.251953125,0.3034532070159912,-0.0063334680162370205,-0.0067897699773311615,3.1026289463043213,-0.02317691035568714,-0.022749122232198715,0.017654819414019585,1.195852518081665,0.35954776406288147,2.9317336082458496,-0.0,3586.368408203125,1333.9071044921875,1616.862548828125,4348.31201171875
1767765871.161183,16137296052353762183,677,30.718027114868164,26.239089965820312,52.761898040771484,54.43973922729492,0.26568180322647095,0.7283955216407776,-0.4224996864795685,-0.1344393640756607,-0.3294077515602112,-0.6505452394485474,1.790974736213684,4.3914265632629395,0.0,0.0,0.0,0.0,0.001845809631049633,0.002142669865861535,0.0018454650416970253,0.002145509934052825,-0.0010887040989473462,-0.0010740191210061312,-0.0013111330335959792,-0.0013175646308809519,-173.21585083007812,317.7048034667969,204.8136749267578,-54.46697998046875,-123.66871643066406,-63.41229248046875,-40.225284576416016,-64.84999084472656,0.3030891418457031,-0.006390854250639677,0.0028191714081913233,-0.0027239397168159485,0.0054422589018940926,-0.003795678960159421,-0.0029009939171373844,0.01412561908364296,-0.003634111490100622,-0.015829667448997498,-0.0,2849.365478515625,1988.5938720703125,1499.4027099609375,2448.55029296875
1767765872.438265,16137296052353762183,696,30.425134658813477,25.9783878326416,53.04099655151367,54.73664474487305,-0.43986526131629944,-2.2293548583984375,1.206610918045044,-0.05266725271940231,-0.2927200198173523,43.90358352661133,-15.13267993927002,15.599081039428711,0.0,0.0,0.0,0.0,0.0013860124163329601,0.000850440061185509,0.0013930890709161758,0.0008264537318609655,-0.0007224768050946295,-0.0007199565297923982,0.0003926407662220299,0.0003910427913069725,-160.67210388183594,331.6152038574219,186.45709228515625,-120.16541290283203,-25.143569946289062,-41.063907623291016,4.98030424118042,-54.27804183959961,0.30303359031677246,0.0003440913569647819,-0.002677661832422018,0.0026975383516401052,-0.007045769598335028,0.005205756984651089,0.005378711968660355,0.005443735513836145,0.059479009360075,0.1644175946712494,-0.0,2765.196533203125,1887.95361328125,1737.093505859375,2659.712890625
1767765876.9332309,16137296052353762183,697,30.289188385009766,25.95578956604004,52.99777603149414,54.779579162597656,-7.051005840301514,3.0723841190338135,-4.66445779800415,1.8907827138900757,-326.2206115722656,261.609375,-289.70245361328125,95.89773559570312,0.0,0.0,0.0,0.0,0.0009225455578416586,0.00047601383994333446,0.0009344610152766109,0.00046345937880687416,-0.0005277438904158771,-0.0005136453546583652,-1.3222980669524986e-05,-1.9227591110393405e-05,-172.6938934326172,330.087158203125,197.54080200195312,-103.76351928710938,-49.35073471069336,-58.76939392089844,-15.595468521118164,-79.77748107910156,0.3031041622161865,0.0005341601208783686,0.005743272136896849,-0.0018135012360289693,-0.0018422040157020092,0.002026105299592018,-0.010770398192107677,0.25676512718200684,-0.15689696371555328,-0.7968629598617554,-0.0,2712.650146484375,1940.3909912109375,1658.303466796875,2680.43505859375
1767765877.9522574,16137296052353762183,718,30.204553604125977,25.842548370361328,52.71237564086914,54.42106628417969,-1.4085570573806763,-0.27130240201950073,-1.1697828769683838,-0.3523590564727783,-179.63148498535156,88.55406951904297,-75.76576232910156,188.5841064453125,0.0,0.0,0.0,0.0,0.00035773206036537886,0.0005850948509760201,0.00035683371243067086,0.0005895863869227469,-0.0004382156766951084,-0.00043316397932358086,-0.0008242683834396303,-0.0008263882482424378,-145.34507751464844,326.884765625,235.2516632080078,-28.830493927001953,-12.992700576782227,-4.321054935455322,-3.2966115474700928,-4.203812122344971,0.3036372661590576,-0.005153208039700985,0.0020792027935385704,-0.0010954556055366993,-0.002238034037873149,-0.00182090955786407,-0.013841791078448296,-0.1882215291261673,0.06704054027795792,-0.4712609648704529,-0.0,2734.3349609375,1912.917236328125,1456.5958251953125,2438.5703125
1767765878.9553797,16137296052353762183,738,30.15334701538086,25.801694869995117,52.73228454589844,54.43538284301758,2.297971725463867,0.1691448986530304,-1.4399045705795288,-4.1924638748168945,144.48109436035156,160.73634338378906,-194.39984130859375,-313.94232177734375,0.0,0.0,0.0,0.0,9.258372301701456e-05,9.72927882685326e-05,0.00010103924432769418,0.00010410342656541616,-0.00021823126007802784,-0.00021904315508436412,-0.0006191963911987841,-0.000618994643446058,-137.23068237304688,319.95159912109375,242.0850372314453,-17.67974853515625,4.537855625152588,-6.3158392906188965,2.976962089538574,-10.119941711425781,0.3036630153656006,-0.0015659400960430503,0.008250914514064789,0.002446274273097515,-0.0031151934526860714,0.003302548546344042,-0.01585797592997551,-0.40649959444999695,0.25579923391342163,-0.8034508228302002,-0.0,2753.12841796875,1909.472900390625,1464.8155517578125,2425.0419921875
1767765879.9930081,16137296052353762183,759,30.21705436706543,25.755586624145508,52.62702178955078,54.26924133300781,1.1931463479995728,-0.3694497048854828,0.773815929889679,-0.21166042983531952,-11.269164085388184,4.210348606109619,4.483835697174072,1.6543099880218506,0.0,0.0,0.0,0.0,0.00012986962974537164,0.00020105585281271487,0.0001288722996832803,0.0001988061994779855,-0.00036080682184547186,-0.0003597300674300641,-0.00024478856357745826,-0.0002452795743010938,-105.77596282958984,328.8929138183594,236.6508331298828,-15.318397521972656,15.430389404296875,5.812214374542236,8.032818794250488,2.557964563369751,0.3038299083709717,-0.0055743008852005005,0.006557387765496969,0.0002968043554574251,0.004461181350052357,-0.0027237923350185156,0.005049404688179493,-0.028013665229082108,-0.033179402351379395,0.055319126695394516,-0.0,2751.0830078125,1899.1373291015625,1404.6387939453125,2334.4873046875
1767765881.0027,16137296052353762183,779,30.20317268371582,26.029508590698242,52.670616149902344,54.51734161376953,-3.792443037033081,-0.653076708316803,-2.813091278076172,1.5899547338485718,-181.13954162597656,-104.87026977539062,-80.19709014892578,178.72238159179688,0.0,0.0,0.0,0.0,0.00020303110068198293,-0.00018907709454651922,0.00021230198035482317,-0.0002005392307182774,-0.0006167725659906864,-0.0006146514788269997,0.0010378941660746932,0.001036873902194202,-80.03919219970703,346.62896728515625,183.84042358398438,-69.66708374023438,34.94100570678711,-3.5042567253112793,20.329477310180664,-9.744124412536621,0.30356335639953613,-0.0011683953925967216,-0.0025121700018644333,-0.0014184967149049044,0.000778776709921658,-0.0005527418688870966,-0.018982525914907455,0.06755431741476059,-0.17091476917266846,-0.2977612614631653,-0.0,2705.3359375,1943.437255859375,1444.6693115234375,2494.123046875
1767765882.035905,16137296052353762183,800,30.345239639282227,26.148452758789062,52.81198501586914,54.571834564208984,-2.9270172119140625,-4.505899429321289,-0.015093976631760597,-1.949204921722412,32.53231430053711,-579.7692260742188,165.8538818359375,-216.17868041992188,0.0,0.0,0.0,0.0,0.00030788875301368535,0.0005517812678590417,0.0003001862787641585,0.0005533723742701113,-0.0004891728167422116,-0.0004875563317909837,-0.0009213072480633855,-0.0009220068459399045,-78.47691345214844,330.808837890625,270.8854064941406,20.5036563873291,57.19794845581055,36.58322525024414,34.87274932861328,49.000362396240234,0.3033311367034912,0.0011243679327890277,-0.01363137923181057,-0.0008904241258278489,-0.004682432860136032,0.0033610807731747627,-0.0028819977305829525,-0.07385458052158356,0.35555756092071533,0.016077591106295586,-0.0,2752.9912109375,1926.1214599609375,1532.681884765625,2542.10205078125
1767765883.0450423,16137296052353762183,821,30.709827423095703,26.313642501831055,52.9268798828125,54.61292266845703,-0.12281037867069244,5.730585098266602,0.4364139139652252,5.321160316467285,-7.255590915679932,491.4841003417969,48.635093688964844,470.903076171875,0.0,0.0,0.0,0.0,0.0002741146308835596,5.828944267705083e-05,0.0002757498587016016,5.243320993031375e-05,0.00044967271969653666,0.0004553111211862415,0.0011507979361340404,0.0011485610157251358,-184.7958984375,271.4928283691406,161.48605346679688,-132.96817016601562,77.79920196533203,21.281335830688477,47.53321075439453,22.007658004760742,0.30290699005126953,-0.0047031245194375515,0.0111501170322299,0.0007724508759565651,0.002672300674021244,-0.0010641685221344233,0.008292965590953827,0.22342148423194885,-0.09495074301958084,0.7925916910171509,-0.0,2874.446044921875,2049.131591796875,1642.602294921875,2602.97607421875
1767765884.0843854,16137296052353762183,842,30.715227127075195,26.2027530670166,52.918792724609375,54.50176239013672,0.036981768906116486,-5.093486309051514,-0.47545456886291504,-4.913443565368652,5.688031196594238,-483.20263671875,-45.91984939575195,-466.22454833984375,0.0,0.0,0.0,0.0,9.464629692956805e-05,9.929722727974877e-05,9.757451334735379e-05,0.0001003495417535305,-0.0005978737026453018,-0.0006011989898979664,-0.0006630184943787754,-0.000661872501950711,-100.3901138305664,327.054443359375,227.72891235351562,-54.28364562988281,70.62324523925781,19.113967895507812,41.20410919189453,19.2825870513916,0.3031175136566162,0.004125881474465132,-0.011312449350953102,-0.0007405912037938833,-0.0020648010540753603,0.0008696602308191359,-0.008079659193754196,-0.21548821032047272,0.09486261755228043,-0.7920206785202026,-0.0,2850.51708984375,1939.19384765625,1590.172119140625,2469.521484375
1767765885.0926006,16137296052353762183,862,30.734189987182617,26.293394088745117,52.93833541870117,54.58867263793945,0.06657634675502777,4.616114616394043,0.5242304801940918,4.615462779998779,1.4799916744232178,461.50042724609375,50.16712188720703,463.48406982421875,0.0,0.0,0.0,0.0,0.00021328312868718058,0.00014358216139953583,0.00021130414097569883,0.00014147059118840843,0.0005669719539582729,0.0005726715316995978,0.0009327359730377793,0.0009305319981649518,-180.10202026367188,276.79510498046875,163.5467529296875,-128.0306396484375,79.37175750732422,21.89015769958496,48.42817306518555,21.881214141845703,0.30291152000427246,-0.00307742808945477,0.010189664550125599,0.0004295067337807268,0.0025243437848985195,-0.0015096365241333842,0.008698377758264542,0.22067537903785706,-0.10185730457305908,0.7633851766586304,-0.0,2878.288330078125,2042.38232421875,1647.2576904296875,2589.3232421875
1767765886.0954778,16137296052353762183,882,30.704362869262695,26.204336166381836,52.914031982421875,54.50717544555664,0.00537123391404748,-4.782309532165527,-0.5030751824378967,-4.741980075836182,0.6181514263153076,-469.0891418457031,-49.39323425292969,-465.3532409667969,0.0,0.0,0.0,0.0,8.450845052720979e-05,9.154073632089421e-05,8.751989662414417e-05,9.243488602805883e-05,-0.0005996844847686589,-0.0006031437078490853,-0.0006987991509959102,-0.0006975874421186745,-108.80391693115234,331.30047607421875,216.68458557128906,-50.91859817504883,71.12332153320312,17.239999771118164,40.58985900878906,17.025442123413086,0.30310559272766113,0.0034942245110869408,-0.010881615802645683,-0.000687820662278682,-0.002021391410380602,0.0009833222720772028,-0.007853885181248188,-0.21680334210395813,0.09530915319919586,-0.7694258093833923,-0.0,2850.461669921875,1941.7152099609375,1588.6295166015625,2472.563720703125
1767765887.1005788,16137296052353762183,902,30.70755386352539,26.302574157714844,52.92578125,54.60158920288086,0.010359857231378555,4.8619537353515625,0.5130855441093445,4.751720905303955,-0.4798436760902405,473.126708984375,48.661888122558594,463.33697509765625,0.0,0.0,0.0,0.0,0.00020454515470191836,0.00013148023572284728,0.0002033969503827393,0.00012855854583904147,0.00046813461813144386,0.000473607680760324,0.0007641509873792529,0.0007620066171512008,-182.2084503173828,281.39892578125,161.27088928222656,-132.92181396484375,80.10428619384766,17.690685272216797,48.769073486328125,18.52269744873047,0.30290699005126953,-0.0043189190328121185,0.01061281282454729,0.0006017101695761085,0.0024315014015883207,-0.0009884675964713097,0.00802677497267723,0.21484747529029846,-0.09288717061281204,0.7709933519363403,-0.0,2872.6533203125,2046.1693115234375,1640.8802490234375,2595.76025390625
1767765888.102326,16137296052353762183,922,30.711090087890625,26.202205657958984,52.91706085205078,54.50191879272461,0.011319885030388832,-4.904951572418213,-0.5047762989997864,-4.7740936279296875,2.1892523765563965,-475.68414306640625,-48.270233154296875,-463.52862548828125,0.0,0.0,0.0,0.0,6.991261761868373e-05,0.00012635192251764238,7.163846748881042e-05,0.00012844961020164192,-0.0005453159101307392,-0.0005486668669618666,-0.0007727846968919039,-0.0007716170512139797,-108.38111877441406,330.8290100097656,216.2618865966797,-54.305519104003906,71.53357696533203,16.220661163330078,40.24090576171875,17.8231258392334,0.3030989170074463,0.0038469191640615463,-0.010920344851911068,-0.0007454357109963894,-0.0019719875417649746,0.0008483370766043663,-0.007792583201080561,-0.21448630094528198,0.09256758540868759,-0.7772929072380066,-0.0,2851.125732421875,1940.1549072265625,1590.26904296875,2469.02099609375
1767765889.146083,16137296052353762183,943,30.70903968811035,26.300949096679688,52.926944732666016,54.59876251220703,-0.053777746856212616,4.843369960784912,0.46230635046958923,4.742650985717773,-3.462970733642578,475.17510986328125,46.74113464355469,465.0928649902344,0.0,0.0,0.0,0.0,0.00020078568195458502,0.00014194594405125827,0.00019923795480281115,0.00013943950762040913,0.0004940786166116595,0.0004996529314666986,0.00075592688517645,0.0007537499186582863,-182.50518798828125,279.7669372558594,160.95339965820312,-133.6666717529297,80.27217864990234,18.221160888671875,48.11873245239258,18.53506851196289,0.3029022216796875,-0.00415827427059412,0.01064296904951334,0.0005603008321486413,0.002429285552352667,-0.0010798060102388263,0.008208245038986206,0.21426306664943695,-0.09418453276157379,0.7796940803527832,-0.0,2872.64111328125,2045.449951171875,1641.0968017578125,2593.82373046875
1767765890.1492798,16137296052353762183,963,30.70907211303711,26.2021427154541,52.917232513427734,54.50196838378906,0.017400842159986496,-4.859755039215088,-0.48376163840293884,-4.743961811065674,2.4621264934539795,-474.4284973144531,-47.39064407348633,-464.1365661621094,0.0,0.0,0.0,0.0,6.405712338164449e-05,0.00012463252642191947,6.566345109604299e-05,0.00012680518557317555,-0.0005400993395596743,-0.0005435276543721557,-0.0007808389491401613,-0.0007796395220793784,-108.79766082763672,330.60028076171875,216.53244018554688,-56.86338424682617,71.20729064941406,16.383811950683594,40.135276794433594,18.355478286743164,0.30309605598449707,0.003744983347132802,-0.010868716984987259,-0.0007325097685679793,-0.001956949010491371,0.0008705470827408135,-0.007760064210742712,-0.21440298855304718,0.09310170263051987,-0.7774153351783752,-0.0,2850.83349609375,1940.3375244140625,1590.5858154296875,2468.73388671875
1767765891.1972349,16137296052353762183,984,30.71946907043457,26.293804168701172,52.935176849365234,54.592044830322266,-0.018761854618787766,4.848209381103516,0.49381935596466064,4.759500503540039,-1.7453229427337646,473.5824279785156,48.28075408935547,465.05181884765625,0.0,0.0,0.0,0.0,0.00019508959667291492,0.0001657467073528096,0.00019236736989114434,0.00016424452769570053,0.0005738208419643342,0.0005795401521027088,0.0008013196638785303,0.0007991059101186693,-183.58126831054688,277.0532531738281,164.51902770996094,-140.77337646484375,80.47425079345703,19.10029411315918,47.66282272338867,22.598772048950195,0.30289745330810547,-0.003703799331560731,0.010565387085080147,0.0004946918343193829,0.0024816193617880344,-0.001275436021387577,0.008601483888924122,0.2163856327533722,-0.09447001665830612,0.7737271189689636,-0.0,2875.834716796875,2043.25048828125,1645.817626953125,2589.72216796875
1767765892.2023008,16137296052353762183,1004,30.716764450073242,26.198314666748047,52.92348861694336,54.496795654296875,0.0007268002955242991,-4.935428619384766,-0.5100321173667908,-4.814507007598877,1.5309040546417236,-477.20904541015625,-47.762874603271484,-465.2851257324219,0.0,0.0,0.0,0.0,6.669977301498875e-05,0.00013099682109896094,6.788784958189353e-05,0.00013370226952247322,-0.00046979490434750915,-0.0004731423396151513,-0.0007027089595794678,-0.0007015516166575253,-111.4034194946289,329.4374084472656,220.7655487060547,-54.30141067504883,71.81669616699219,18.299922943115234,40.03679275512695,21.53498077392578,0.30309081077575684,0.004202171694487333,-0.010800941847264767,-0.0008285366930067539,-0.0019753845408558846,0.0006728623993694782,-0.007359500974416733,-0.2165886014699936,0.09559427946805954,-0.7810388803482056,-0.0,2852.882080078125,1938.866943359375,1593.503662109375,2466.063232421875
1767765893.246461,16137296052353762183,1025,30.713651657104492,26.298080444335938,52.93271255493164,54.59480285644531,-0.051942043006420135,4.843413829803467,0.4638460874557495,4.746884822845459,-3.5046117305755615,475.1509704589844,46.08258056640625,464.7530822753906,0.0,0.0,0.0,0.0,0.00020652082457672805,0.00014047606964595616,0.00020475992641877383,0.00013810950622428209,0.0005405257688835263,0.0005461594555526972,0.0008549646008759737,0.0008527736063115299,-183.39483642578125,278.3726501464844,162.4832305908203,-133.33946228027344,80.35157012939453,19.756505966186523,47.60776138305664,21.918119430541992,0.30289483070373535,-0.0038542093243449926,0.010639398358762264,0.0005074574146419764,0.0024475303944200277,-0.0012429107446223497,0.008587228134274483,0.21489998698234558,-0.09456437081098557,0.7787850499153137,-0.0,2874.1083984375,2044.336669921875,1644.222412109375,2591.823974609375
1767765894.249298,16137296052353762183,1045,30.714378356933594,26.199533462524414,52.92352294921875,54.49783706665039,0.042807821184396744,-4.845754146575928,-0.4608671963214874,-4.737095355987549,4.494480133056641,-474.9319152832031,-45.27163314819336,-464.1912841796875,0.0,0.0,0.0,0.0,6.951716932235286e-05,0.0001253085065400228,7.084484241204336e-05,0.00012778089148923755,-0.0004679598205257207,-0.0004713332455139607,-0.0006770231993868947,-0.0006758570671081543,-111.53461456298828,329.01397705078125,220.47909545898438,-55.724117279052734,71.65502166748047,18.002721786499023,40.08823776245117,21.15998077392578,0.3030843734741211,0.004159598611295223,-0.010946347378194332,-0.0008064939174801111,-0.0019539734348654747,0.0007109952857717872,-0.007384303957223892,-0.214727982878685,0.09470254182815552,-0.7787769436836243,-0.0,2853.020751953125,1939.7513427734375,1594.180419921875,2467.044189453125
1767765895.2532456,16137296052353762183,1065,30.713953018188477,26.298980712890625,52.93354415893555,54.59442901611328,-0.01833304390311241,4.853057861328125,0.4801250696182251,4.756375789642334,-2.3924663066864014,476.11395263671875,46.462646484375,466.17706298828125,0.0,0.0,0.0,0.0,0.00020563093130476773,0.00014057349471841007,0.00020385775133036077,0.00013824713823851198,0.0005406317068263888,0.0005462693516165018,0.0008516208617947996,0.0008494296343997121,-183.41835021972656,278.4200134277344,162.73960876464844,-133.81082153320312,80.30640411376953,19.76585578918457,47.58785629272461,21.879838943481445,0.3028876781463623,-0.003802358405664563,0.010540531948208809,0.0005094957887195051,0.0024432223290205,-0.001227276399731636,0.008534299209713936,0.2153785228729248,-0.09443128108978271,0.7785266041755676,-0.0,2874.437744140625,2044.810302734375,1644.8592529296875,2591.857177734375
1767765896.2987978,16137296052353762183,1086,30.706811904907227,26.20608139038086,52.9190788269043,54.501930236816406,0.05288945883512497,-4.877462387084961,-0.4707343876361847,-4.754053592681885,3.6571996212005615,-475.7213134765625,-47.134765625,-463.47882080078125,0.0,0.0,0.0,0.0,7.504330278607085e-05,0.00010972291784128174,7.720175199210644e-05,0.00011140616697957739,-0.0005504504078999162,-0.0005538820987567306,-0.000711140048224479,-0.0007099426002241671,-108.60459899902344,331.1599426269531,218.11900329589844,-52.64592742919922,72.08926391601562,16.62491798400879,40.393043518066406,19.56298828125,0.30307888984680176,0.0038308603689074516,-0.01091433223336935,-0.0007371175452135503,-0.001980595290660858,0.0008499287068843842,-0.007734450977295637,-0.21459150314331055,0.09338148683309555,-0.7799659371376038,-0.0,2850.871337890625,1941.189453125,1591.62353515625,2469.571044921875
1767765897.2996514,16137296052353762183,1106,30.710023880004883,26.302886962890625,52.9324951171875,54.59434127807617,0.01223954651504755,4.844028949737549,0.47204458713531494,4.712591171264648,-2.026292085647583,473.12530517578125,45.138694763183594,462.5313720703125,0.0,0.0,0.0,0.0,0.00020709318050649017,0.00012070107186445966,0.00020586338359862566,0.00011796748731285334,0.0005252682021819055,0.0005308249383233488,0.000891654344741255,0.0008894901257008314,-182.7181396484375,277.90374755859375,155.54391479492188,-121.33287048339844,83.92449951171875,18.94860076904297,48.578330993652344,20.391633987426758,0.30288028717041016,-0.003762615844607353,0.010539107955992222,0.0005151313380338252,0.002423491794615984,-0.001236029900610447,0.00851499941200018,0.21470247209072113,-0.09559185057878494,0.777453601360321,-0.0,2874.286376953125,2045.31640625,1644.6431884765625,2592.9501953125
1767765898.2997403,16137296052353762183,1127,30.716053009033203,26.203413009643555,52.92532730102539,54.49308776855469,0.005951260216534138,-4.818140506744385,-0.4947786331176758,-4.739950180053711,2.621394157409668,-471.3077087402344,-47.573368072509766,-464.51043701171875,0.0,0.0,0.0,0.0,6.819549889769405e-05,0.00011401130905142054,6.948096415726468e-05,0.0001166073270724155,-0.0004144528356846422,-0.0004178386880084872,-0.0005901644472032785,-0.0005889952881261706,-114.58576965332031,324.57904052734375,209.0880126953125,-35.760887145996094,76.3323974609375,17.626625061035156,42.048095703125,20.686079025268555,0.3030679225921631,0.0044090645387768745,-0.010827644728124142,-0.0008594630053266883,-0.001978749642148614,0.000586923910304904,-0.006995717063546181,-0.21824397146701813,0.09749070554971695,-0.7737988829612732,-0.0,2854.583251953125,1939.5323486328125,1595.7750244140625,2465.99853515625
1767765899.3405368,16137296052353762183,1148,30.710121154785156,26.302114486694336,52.932395935058594,54.59073257446289,-0.02382734604179859,4.817232131958008,0.4895104169845581,4.710145950317383,-2.086838722229004,472.0101623535156,47.80548858642578,461.8348083496094,0.0,0.0,0.0,0.0,0.00019956692995037884,0.0001225016894750297,0.0001979870576178655,0.00011998217814834788,0.0005410666926763952,0.0005465977592393756,0.0008965176530182362,0.0008943674620240927,-183.18809509277344,275.67413330078125,144.56930541992188,-112.24099731445312,84.88584899902344,18.71891975402832,49.480735778808594,20.96826171875,0.3028738498687744,-0.003729699645191431,0.010550670325756073,0.0005109307821840048,0.002415748778730631,-0.0012474969262257218,0.008565225638449192,0.21504834294319153,-0.09363941848278046,0.7745083570480347,-0.0,2874.47509765625,2044.2554931640625,1645.4190673828125,2591.524658203125
1767765900.400152,16137296052353762183,1169,30.710065841674805,26.301288604736328,52.932857513427734,54.58959197998047,-0.04138939455151558,4.848484992980957,0.4716931879520416,4.728236675262451,-3.5713086128234863,474.5002746582031,46.260746002197266,462.46392822265625,0.0,0.0,0.0,0.0,0.00019922656065318733,0.00012586214870680124,0.000197514338651672,0.00012347161828074604,0.000554617028683424,0.0005601992015726864,0.0008996575488708913,0.0008974917000159621,-183.3935546875,275.1091003417969,141.69735717773438,-109.90799713134766,85.2314682006836,18.67130470275879,49.032108306884766,21.406641006469727,0.3028724193572998,-0.0036599645391106606,0.010563377290964127,0.0004998630029149354,0.002433914691209793,-0.0012846662430092692,0.00861834641546011,0.2158980816602707,-0.09463091194629669,0.7768490314483643,-0.0,2874.38818359375,2044.14501953125,1645.8245849609375,2591.15625
1767765901.4473188,16137296052353762183,1190,30.696346282958984,26.21112632751465,52.914207458496094,54.49982833862305,0.0038359479513019323,-4.837587356567383,-0.4895400404930115,-4.735203742980957,0.07638617604970932,-471.9924011230469,-48.29279708862305,-462.8480529785156,0.0,0.0,0.0,0.0,5.817336932523176e-05,8.399831858696416e-05,6.0585563915083185e-05,8.542888099327683e-05,-0.0005571955698542297,-0.0005608346546068788,-0.0007063306984491646,-0.0007050374988466501,-107.85708618164062,327.25286865234375,195.0281982421875,-28.233543395996094,76.92039489746094,15.618425369262695,41.34380340576172,18.043603897094727,0.30306529998779297,0.0037001576274633408,-0.01083202101290226,-0.0007138853543438017,-0.0020065363496541977,0.0008913790807127953,-0.007712078746408224,-0.21474842727184296,0.09324074536561966,-0.7733287811279297,-0.0,2849.165283203125,1941.480224609375,1590.588623046875,2470.15869140625
1767765902.4477499,16137296052353762183,1210,30.699636459350586,26.30779266357422,52.92655944824219,54.59202575683594,0.004462965298444033,4.844047546386719,0.480360746383667,4.714166164398193,-1.0611129999160767,474.46044921875,46.35676956176758,462.55523681640625,0.0,0.0,0.0,0.0,0.00019572942983359098,0.00011208411888219416,0.0001945870026247576,0.00010923701483989134,0.0005033225170336664,0.00050875055603683,0.0008504305733367801,0.0008483124547637999,-183.05406188964844,277.6800231933594,127.51927947998047,-94.45084381103516,87.34329986572266,17.47650909423828,49.1391487121582,19.054140090942383,0.30286598205566406,-0.003999541979283094,0.010612713173031807,0.0005611206870526075,0.0023908799048513174,-0.0011144164018332958,0.008320586755871773,0.21383197605609894,-0.09296853095293045,0.7753942608833313,-0.0,2872.509521484375,2046.0960693359375,1643.318115234375,2593.5927734375
1767765903.4871738,16137296052353762183,1231,30.700397491455078,26.205787658691406,52.91752243041992,54.49382019042969,0.013432000763714314,-4.836159706115723,-0.4727698564529419,-4.716185569763184,2.630385637283325,-473.4380798339844,-46.276309967041016,-462.39544677734375,0.0,0.0,0.0,0.0,4.741977318190038e-05,0.00011032598558813334,4.8739646445028484e-05,0.00011277999874437228,-0.0004909815033897758,-0.0004945339169353247,-0.0007359703886322677,-0.0007347165374085307,-111.0945053100586,326.9310302734375,187.3081512451172,-23.954740524291992,78.09034729003906,16.419719696044922,40.77924728393555,17.63115692138672,0.30305981636047363,0.003960058558732271,-0.010839283466339111,-0.0007689645863138139,-0.0019658366218209267,0.0007792744436301291,-0.00752622913569212,-0.21403470635414124,0.09326393157243729,-0.7759774923324585,-0.0,2850.8212890625,1940.311767578125,1592.9637451171875,2467.02978515625
1767765904.4916584,16137296052353762183,1251,30.694549560546875,26.307790756225586,52.92404556274414,54.594482421875,-0.017723092809319496,4.849128723144531,0.48461294174194336,4.729429721832275,-1.6867204904556274,472.3227844238281,47.415794372558594,461.18621826171875,0.0,0.0,0.0,0.0,0.00017256279534194618,0.00012410874478518963,0.000170898565556854,0.00012172917922725901,0.000480786053230986,0.0004861424386035651,0.0007031965651549399,0.0007011076668277383,-181.58355712890625,278.3697509765625,135.1414031982422,-111.33576202392578,85.66559600830078,18.242185592651367,48.06731033325195,18.964664459228516,0.30286407470703125,-0.004327497910708189,0.010721560567617416,0.0006226327386684716,0.002387198619544506,-0.0009495019330643117,0.0079265795648098,0.21337486803531647,-0.09133780747652054,0.7715340256690979,-0.0,2870.51611328125,2046.6331787109375,1641.44189453125,2593.186767578125
1767765905.5522797,16137296052353762183,1272,30.690908432006836,26.30645751953125,52.92156219482422,54.59587860107422,0.04000362008810043,4.7746195793151855,0.4915775954723358,4.707061767578125,2.123525619506836,469.2484130859375,47.38050079345703,461.55841064453125,0.0,0.0,0.0,0.0,0.00016277698159683496,0.00012474090908654034,0.0001610821345821023,0.0001223646104335785,0.0004504930111579597,0.00045577192213386297,0.0006327401497401297,0.0006306804134510458,-180.2055206298828,280.90155029296875,141.3197479248047,-120.72377014160156,84.7105941772461,18.556373596191406,47.32061767578125,18.63323974609375,0.30286717414855957,-0.004441622644662857,0.01060480996966362,0.0006617290200665593,0.002373508410528302,-0.0008397257188335061,0.007606207393109798,0.2144378423690796,-0.09154357016086578,0.7649599313735962,-0.0,2868.540283203125,2047.005615234375,1640.0823974609375,2593.103271484375
1767765906.5947943,16137296052353762183,1293,30.70404624938965,26.204896926879883,52.920101165771484,54.494606018066406,-0.038515854626894,-4.819067001342773,-0.4808979630470276,-4.71984338760376,-1.730257272720337,-477.67822265625,-45.957550048828125,-465.7040100097656,0.0,0.0,0.0,0.0,2.938957368314732e-05,0.000120460957987234,3.0176785003277473e-05,0.00012345002323854715,-0.000499682268127799,-0.0005032473709434271,-0.0008282324997708201,-0.0008269677055068314,-108.20630645751953,326.73199462890625,200.29527282714844,-45.71146774291992,71.62825012207031,19.164609909057617,34.904415130615234,18.767332077026367,0.3030557632446289,0.0038342904299497604,-0.01066959835588932,-0.0007557818898931146,-0.0019477197201922536,0.0008069634204730392,-0.007666804827749729,-0.21439051628112793,0.09214658290147781,-0.7790266871452332,-0.0,2849.978759765625,1940.5450439453125,1593.4825439453125,2465.125732421875
1767765907.6345823,16137296052353762183,1314,30.696338653564453,26.306838989257812,52.92451477050781,54.59608459472656,0.030063295736908913,4.729682445526123,0.4635447561740875,4.650341510772705,1.7884621620178223,466.4217529296875,46.956268310546875,460.087158203125,0.0,0.0,0.0,0.0,0.00016501705977134407,0.00013223318092059344,0.00016324286116287112,0.00013006539666093886,0.0004567925934679806,0.00046210410073399544,0.0006226557889021933,0.0006205853424035013,-178.1415557861328,280.6302795410156,152.53033447265625,-133.51820373535156,81.14544677734375,22.111778259277344,45.099945068359375,19.65884017944336,0.30286312103271484,-0.004396545235067606,0.01061278861016035,0.0006366833113133907,0.002374393166974187,-0.0008832094026729465,0.007665804587304592,0.21353134512901306,-0.09189682453870773,0.766732931137085,-0.0,2868.429931640625,2047.277099609375,1640.7137451171875,2591.998779296875
1767765908.6947138,16137296052353762183,1335,30.693601608276367,26.305809020996094,52.9249382019043,54.59705352783203,0.0385504886507988,4.785833358764648,0.4848957359790802,4.699322700500488,3.2781167030334473,468.5480041503906,47.22859573364258,460.2505798339844,0.0,0.0,0.0,0.0,0.00016882158524822444,0.00012499382137320936,0.00016722333384677768,0.00012253655586391687,0.0004540517402347177,0.0004593443009071052,0.0006522360490635037,0.0006501712487079203,-179.40646362304688,281.9530334472656,155.93093872070312,-136.2539520263672,81.64044189453125,22.579452514648438,44.04385757446289,20.609525680541992,0.30286407470703125,-0.004440986551344395,0.010645071044564247,0.0006530144019052386,0.002379382960498333,-0.0008652334799990058,0.00767522444948554,0.21396826207637787,-0.0912877693772316,0.7653347253799438,-0.0,2868.3134765625,2047.5052490234375,1641.002685546875,2592.46923828125
1767765909.7503188,16137296052353762183,1356,30.690372467041016,26.304561614990234,52.92569351196289,54.59635543823242,-0.01835491694509983,4.762458801269531,0.4915446639060974,4.690415382385254,0.002490028040483594,470.25396728515625,49.4755973815918,462.7159729003906,0.0,0.0,0.0,0.0,0.0001722867600619793,0.00011908471788046882,0.00017086142906919122,0.0001164689747383818,0.00045724070514552295,0.00046256103087216616,0.0006831318605691195,0.0006810564082115889,-179.6089324951172,281.78643798828125,155.3240966796875,-133.2860870361328,81.83969116210938,22.29595184326172,44.23758316040039,21.165376663208008,0.30286216735839844,-0.004309678915888071,0.010556221008300781,0.0006392368231900036,0.0023591825738549232,-0.0008940898696891963,0.007750955410301685,0.21399028599262238,-0.09161955863237381,0.7701061367988586,-0.0,2868.395751953125,2047.0396728515625,1640.7369384765625,2592.5615234375
1767765910.7928247,16137296052353762183,1377,30.687637329101562,26.20382308959961,52.91276550292969,54.49681854248047,-0.20488189160823822,-5.0782389640808105,-0.6761544942855835,-4.8791093826293945,-10.784565925598145,-467.7820129394531,-56.683536529541016,-452.31573486328125,0.0,0.0,0.0,0.0,3.577869210857898e-05,0.0001017335380311124,3.7838050047867e-05,0.00010375520650995895,-0.0006284589762799442,-0.0006318275700323284,-0.0008975021191872656,-0.0008962988504208624,-101.9467544555664,333.64044189453125,209.96141052246094,-50.49774169921875,72.53668212890625,20.16101837158203,35.90653610229492,20.014863967895508,0.3030664920806885,0.003935438115149736,-0.011003883555531502,-0.0007093567401170731,-0.0020610785577446222,0.0009156432934105396,-0.008370867930352688,-0.2146935909986496,0.08796150982379913,-0.7717427611351013,-0.0,2842.9638671875,1941.1370849609375,1586.3260498046875,2465.7373046875
1767765911.8440495,16137296052353762183,1398,30.70716667175293,26.206998825073242,52.925716400146484,54.49481201171875,0.0008297429303638637,-4.754334449768066,-0.5011646747589111,-4.699295520782471,-0.750848114490509,-472.177001953125,-48.499488830566406,-464.4646301269531,0.0,0.0,0.0,0.0,4.934368553222157e-05,0.000124740632600151,5.0210877816425636e-05,0.0001277444971492514,-0.00043559184996411204,-0.00043906940845772624,-0.000708950508851558,-0.0007077346672303975,-112.8532943725586,328.0662536621094,212.5495147705078,-53.29909896850586,73.45188903808594,20.422889709472656,36.934181213378906,22.071807861328125,0.3030414581298828,0.004047739319503307,-0.010695163160562515,-0.0008194355177693069,-0.0019183880649507046,0.0006827549659647048,-0.007193036377429962,-0.21540190279483795,0.09456823021173477,-0.7703204154968262,-0.0,2851.791259765625,1941.763671875,1595.8072509765625,2465.19580078125
1767765912.900752,16137296052353762183,1419,30.702659606933594,26.20562744140625,52.92393112182617,54.49496078491211,-0.025505362078547478,-4.7613372802734375,-0.47689521312713623,-4.67353630065918,-0.3163363039493561,-467.0035705566406,-46.28469467163086,-459.8454284667969,0.0,0.0,0.0,0.0,5.490222611115314e-05,0.00012070770026184618,5.60137013962958e-05,0.00012333266204223037,-0.00045787415001541376,-0.0004613308992702514,-0.0007012616842985153,-0.0007000556215643883,-113.08987426757812,329.0273132324219,211.5380859375,-52.55637741088867,72.82006072998047,20.448719024658203,36.570552825927734,21.889785766601562,0.3030436038970947,0.004003520123660564,-0.010853649117052555,-0.0007886989624239504,-0.0019412565743550658,0.0007463189540430903,-0.007350356318056583,-0.21421432495117188,0.09545352309942245,-0.7712976932525635,-0.0,2850.79443359375,1941.810546875,1594.982666015625,2465.6328125
1767765913.9394982,16137296052353762183,1440,30.70450782775879,26.306093215942383,52.93460464477539,54.591773986816406,-0.00531226908788085,4.838835716247559,0.47535645961761475,4.721874237060547,-2.2307345867156982,472.1706237792969,46.21725082397461,462.18798828125,0.0,0.0,0.0,0.0,0.00019654686911962926,0.0001354039559373632,0.00019482235074974597,0.00013310590293258429,0.0005262959166429937,0.0005318954354152083,0.0008151379297487438,0.000812963058706373,-183.28468322753906,280.5243835449219,155.60125732421875,-129.07167053222656,81.47988891601562,21.828577041625977,44.24620819091797,22.11614990234375,0.302844762802124,-0.003817701479420066,0.010525214485824108,0.0005264905048534274,0.002425427082926035,-0.001184667693451047,0.008385363034904003,0.21475790441036224,-0.09506804496049881,0.7792176008224487,-0.0,2872.764404296875,2047.0462646484375,1645.8475341796875,2590.81005859375
1767765914.9951556,16137296052353762183,1461,30.70863914489746,26.305431365966797,52.9364013671875,54.588687896728516,0.012852187268435955,4.749892711639404,0.4859962463378906,4.6910481452941895,-0.6926707625389099,469.3583984375,46.43735885620117,463.2991638183594,0.0,0.0,0.0,0.0,0.00021452514920383692,0.00014151771028991789,0.00021288635616656393,0.00013906699314247817,0.0005348691483959556,0.0005405481206253171,0.0008806464029476047,0.000878437829669565,-183.56106567382812,281.5066223144531,151.85980224609375,-120.6851806640625,80.05541229248047,22.00200843811035,45.01718521118164,21.231081008911133,0.3028404712677002,-0.0036122743040323257,0.010421513579785824,0.00048532936489209533,0.002462101634591818,-0.0013023295905441046,0.008594898506999016,0.2162696123123169,-0.09726464748382568,0.7755715250968933,-0.0,2873.590576171875,2046.459228515625,1646.983154296875,2589.6953125
1767765916.0345461,16137296052353762183,1482,30.702505111694336,26.210166931152344,52.92315673828125,54.4951171875,-0.027237419039011,-4.842024326324463,-0.4820197522640228,-4.7173004150390625,1.4694161415100098,-472.9479675292969,-45.54969024658203,-461.63653564453125,0.0,0.0,0.0,0.0,9.069524821825325e-05,0.00011080323019996285,9.297332144342363e-05,0.00011225677735637873,-0.0005393269821070135,-0.0005426455172710121,-0.0006461594603024423,-0.0006450199289247394,-115.34422302246094,333.209716796875,205.67431640625,-37.485877990722656,71.4608383178711,19.745290756225586,38.10004425048828,19.687049865722656,0.30303192138671875,0.00383799709379673,-0.010733193717896938,-0.0007348008803091943,-0.0019983327947556973,0.0008222114993259311,-0.007635199930518866,-0.21790152788162231,0.09906969219446182,-0.7877162098884583,-0.0,2851.321533203125,1942.684326171875,1594.6551513671875,2467.03271484375
1767765917.0511675,16137296052353762183,1502,30.708967208862305,26.20012855529785,52.929229736328125,54.48894119262695,0.02664298750460148,-4.687690734863281,-0.4775455892086029,-4.69082498550415,1.587463140487671,-466.2555847167969,-47.03398132324219,-464.44720458984375,0.0,0.0,0.0,0.0,7.402876508422196e-05,0.00014810675929766148,7.462253415724263e-05,0.0001514809555374086,-0.0003706876887008548,-0.00037394929677248,-0.0006198799819685519,-0.0006187697290442884,-125.97049713134766,335.1275939941406,203.73477172851562,-38.61707305908203,72.03655242919922,21.936649322509766,37.22830581665039,20.17363166809082,0.3030269145965576,0.004326612688601017,-0.010783386416733265,-0.000883753236848861,-0.001904851756989956,0.0005702137714251876,-0.006842638365924358,-0.21996425092220306,0.10018034279346466,-0.7700473666191101,-0.0,2855.17822265625,1942.34326171875,1598.4989013671875,2463.43505859375
1767765918.0879157,16137296052353762183,1524,30.705474853515625,26.2976016998291,52.93744659423828,54.58620834350586,-0.011603543534874916,4.761136531829834,0.4980314373970032,4.710301876068115,-0.7867956757545471,469.1281433105469,49.09823226928711,464.77392578125,0.0,0.0,0.0,0.0,0.0002129682106897235,0.00015252584125846624,0.00021095824195072055,0.0001503447419963777,0.0005467545706778765,0.0005524999578483403,0.0008628108189441264,0.0008605819894000888,-192.0934600830078,287.8865661621094,147.445068359375,-119.0435791015625,79.68038177490234,23.412906646728516,44.52070999145508,19.896780014038086,0.30283546447753906,-0.0035427904222160578,0.010358430445194244,0.000479652255307883,0.0024753562174737453,-0.0013149055885151029,0.008590096607804298,0.21773168444633484,-0.09674681723117828,0.7758891582489014,-0.0,2874.44775390625,2046.2607421875,1648.0538330078125,2588.4970703125
1767765919.1478891,16137296052353762183,1545,30.699420928955078,26.298866271972656,52.935359954833984,54.589046478271484,-0.025024311617016792,4.842021465301514,0.47582724690437317,4.737997531890869,-1.548813819885254,473.9322509765625,46.599979400634766,463.3697509765625,0.0,0.0,0.0,0.0,0.00021036902035120875,0.0001478021004004404,0.00020854118338320404,0.00014548444596584886,0.0005368217243812978,0.0005425179842859507,0.0008405931876040995,0.0008383803069591522,-191.434814453125,288.09295654296875,149.05169677734375,-121.8282699584961,79.53907775878906,23.64067268371582,44.259071350097656,19.890838623046875,0.30283474922180176,-0.0037770108319818974,0.010506183840334415,0.0005063884891569614,0.0024576899595558643,-0.001235381467267871,0.008527019992470741,0.21585224568843842,-0.09537242352962494,0.7793834805488586,-0.0,2872.8837890625,2047.0478515625,1646.6934814453125,2589.69580078125
1767765920.1863394,16137296052353762183,1566,30.700210571289062,26.20302963256836,52.92596435546875,54.49369430541992,0.04076782613992691,-4.779568195343018,-0.46148446202278137,-4.702807426452637,3.2676382064819336,-471.80694580078125,-45.854183197021484,-463.0679931640625,0.0,0.0,0.0,0.0,7.576199277536944e-05,0.00013457975001074374,7.702674338361248e-05,0.0001371377584291622,-0.00046022655442357063,-0.00046357265091501176,-0.0006809642072767019,-0.0006798137910664082,-121.00205993652344,337.871826171875,206.92535400390625,-44.337032318115234,70.96514129638672,21.840736389160156,36.91086959838867,19.072437286376953,0.3030242919921875,0.004002219531685114,-0.010789962485432625,-0.0008044352289289236,-0.0019204444251954556,0.0007157882791943848,-0.007292176131159067,-0.21561220288276672,0.09656934440135956,-0.7772071957588196,-0.0,2852.03076171875,1942.943359375,1596.5184326171875,2465.66162109375
1767765921.1904082,16137296052353762183,1586,30.689607620239258,26.303361892700195,52.931129455566406,54.594322204589844,-0.014554544351994991,4.831654071807861,0.4835747480392456,4.7238593101501465,-1.9572334289550781,468.970703125,46.79108428955078,460.309814453125,0.0,0.0,0.0,0.0,0.0002073153737001121,0.00012806984886992723,0.00020622739975806326,0.00012510873784776777,0.00047520449152216315,0.0004807252262253314,0.0007911804714240134,0.0007890213164500892,-190.9196319580078,291.80157470703125,150.4189453125,-122.76311492919922,79.19476318359375,24.40510368347168,44.294273376464844,18.26551628112793,0.30283045768737793,-0.0041726129129529,0.010628503747284412,0.0005816939519718289,0.002424325328320265,-0.0010556525085121393,0.008147838525474072,0.21438775956630707,-0.09424258023500443,0.7733579874038696,-0.0,2870.469970703125,2048.7568359375,1644.346435546875,2592.40283203125
1767765922.2469869,16137296052353762183,1607,30.69045639038086,26.29960060119629,52.931880950927734,54.59086608886719,-0.05531547591090202,4.792514324188232,0.4701358377933502,4.712878227233887,-1.1908332109451294,474.0467834472656,48.013126373291016,464.3172302246094,0.0,0.0,0.0,0.0,0.0002022356929956004,0.00014003633987158537,0.0002006239228649065,0.00013751033111475408,0.000505025964230299,0.0005106008611619473,0.0007908297120593488,0.0007886561215855181,-191.46749877929688,289.7802429199219,149.6350555419922,-123.86619567871094,79.2750244140625,24.98933982849121,44.35625076293945,18.380420684814453,0.30283045768737793,-0.004012961871922016,0.010537192225456238,0.0005515852244570851,0.0024155923165380955,-0.0011056672083213925,0.008287248201668262,0.21472066640853882,-0.09315520524978638,0.7788709402084351,-0.0,2870.588623046875,2047.5450439453125,1644.497314453125,2590.259521484375
1767765923.2871058,16137296052353762183,1628,30.689064025878906,26.20234489440918,52.92185974121094,54.49600601196289,0.011321397498250008,-4.795342445373535,-0.4793333411216736,-4.70203161239624,1.693371295928955,-470.4399108886719,-46.53305435180664,-460.8193054199219,0.0,0.0,0.0,0.0,6.206065154401585e-05,0.00012001105642411858,6.364039290929213e-05,0.0001222412392962724,-0.0005163978203199804,-0.0005198531434871256,-0.0007486327667720616,-0.0007474246667698026,-118.77220153808594,339.97998046875,206.38645935058594,-48.377952575683594,70.47882080078125,22.779891967773438,36.471012115478516,18.010543823242188,0.3030221462249756,0.003793703857809305,-0.010848989710211754,-0.0007499246275983751,-0.001950063742697239,0.000834137259516865,-0.007618332747370005,-0.21391934156417847,0.09360765665769577,-0.7731188535690308,-0.0,2849.011962890625,1943.458740234375,1594.1922607421875,2466.440185546875
1767765924.345729,16137296052353762183,1649,30.687429428100586,26.20150375366211,52.92171096801758,54.495506286621094,0.027494562789797783,-4.820408821105957,-0.4583645164966583,-4.701296329498291,4.172515392303467,-471.14056396484375,-45.4930305480957,-461.4709777832031,0.0,0.0,0.0,0.0,6.338293314911425e-05,0.00011965487647103146,6.497006688732654e-05,0.0001218010947923176,-0.0005216048448346555,-0.000525082868989557,-0.0007443157956004143,-0.0007431007106788456,-118.343994140625,340.1986999511719,206.24191284179688,-48.01679992675781,70.53102111816406,22.757556915283203,36.54102325439453,18.031091690063477,0.3030223846435547,0.0037637141067534685,-0.010888398624956608,-0.0007389547536149621,-0.001953917322680354,0.0008571674698032439,-0.007643379736691713,-0.21384581923484802,0.09435540437698364,-0.7766706943511963,-0.0,2848.73291015625,1943.154296875,1594.121826171875,2466.186767578125
1767765925.3995743,16137296052353762183,1670,30.689844131469727,26.204072952270508,52.92292785644531,54.49607467651367,0.02855432964861393,-4.746098041534424,-0.46755415201187134,-4.6735148429870605,2.758836030960083,-471.1437072753906,-46.48063278198242,-462.6860046386719,0.0,0.0,0.0,0.0,6.262287934077904e-05,0.00012063925532856956,6.413065420929343e-05,0.0001229175104526803,-0.0005038739182054996,-0.0005073616048321128,-0.0007347945938818157,-0.0007335764821618795,-119.7572250366211,339.43896484375,206.05136108398438,-48.53970718383789,70.56085205078125,22.819293975830078,36.538089752197266,18.10941505432129,0.30301403999328613,0.003712491365149617,-0.010740541853010654,-0.0007467992836609483,-0.0019269881304353476,0.0008293370483443141,-0.007505057379603386,-0.2143552005290985,0.09475239366292953,-0.7737041115760803,-0.0,2849.5654296875,1943.8087158203125,1595.0030517578125,2466.4208984375
1767765926.4015846,16137296052353762183,1690,30.688135147094727,26.298236846923828,52.93373489379883,54.58982849121094,-0.01759546808898449,4.826263904571533,0.47881555557250977,4.723973274230957,0.23081690073013306,472.603515625,46.98824691772461,461.74884033203125,0.0,0.0,0.0,0.0,0.00019025086658075452,0.000138038769364357,0.00018835747323464602,0.00013580800441559404,0.0005212124669924378,0.0005267320666462183,0.0007783425971865654,0.0007761985179968178,-192.1071319580078,289.56451416015625,151.72216796875,-127.83175659179688,81.40460205078125,25.21653938293457,43.70671081542969,20.085737228393555,0.3028218746185303,-0.003992686979472637,0.010597916319966316,0.0005575170507654548,0.0024072579108178616,-0.0011020989622920752,0.008286070078611374,0.21377168595790863,-0.0921112522482872,0.7751121520996094,-0.0,2870.772705078125,2047.4232177734375,1645.5093994140625,2589.435546875
1767765927.4407516,16137296052353762183,1712,30.68147850036621,26.20212745666504,52.920448303222656,54.49665069580078,-0.006188876461237669,-4.84761905670166,-0.47763562202453613,-4.732852458953857,2.2641608715057373,-472.6559143066406,-45.54929733276367,-462.052734375,0.0,0.0,0.0,0.0,5.007901563658379e-05,0.0001212731804116629,5.152427183929831e-05,0.00012362348206806928,-0.0005439650849439204,-0.0005475060897879303,-0.0008173453388735652,-0.0008160961442627013,-117.4372787475586,340.7563171386719,210.2819366455078,-56.4105224609375,71.67431640625,22.04585838317871,35.30084991455078,17.988689422607422,0.30301856994628906,0.003614401910454035,-0.010843418538570404,-0.0007193430792540312,-0.001966412179172039,0.0009167683310806751,-0.007802233099937439,-0.21389511227607727,0.09398961812257767,-0.7742815613746643,-0.0,2847.18798828125,1943.063720703125,1592.7718505859375,2465.72314453125
1767765928.499205,16137296052353762183,1733,30.678138732910156,26.207107543945312,52.91822052001953,54.5015869140625,0.017683120444417,-4.7080159187316895,-0.511802613735199,-4.655333042144775,-0.336176335811615,-465.6156005859375,-51.37421798706055,-459.55462646484375,0.0,0.0,0.0,0.0,4.680627171183005e-05,0.00010755298717413098,4.875893137068488e-05,0.00010949478746624663,-0.000591107876971364,-0.0005946572637185454,-0.0008485200232826173,-0.0008472546469420195,-115.15645599365234,342.33935546875,211.86402893066406,-61.25492858886719,70.88966369628906,22.022422790527344,34.75341796875,17.3977108001709,0.3030128479003906,0.0033206220250576735,-0.010747035034000874,-0.0006658982601948082,-0.001970105804502964,0.0010211821645498276,-0.007941373623907566,-0.21469268202781677,0.09127741307020187,-0.7635500431060791,-0.0,2845.976318359375,1945.6510009765625,1591.4622802734375,2468.333984375
1767765929.5376842,16137296052353762183,1754,30.678495407104492,26.299543380737305,52.92947769165039,54.59443664550781,-0.04004345089197159,4.70069694519043,0.4783172011375427,4.647795677185059,-1.3763858079910278,466.0047912597656,48.9390754699707,459.92578125,0.0,0.0,0.0,0.0,0.00017055364151019603,0.00013382990437094122,0.00016882135241758078,0.00013151208986528218,0.000449994346126914,0.0004553477338049561,0.0006286701536737382,0.0006265835254453123,-189.5015106201172,292.98895263671875,164.26625061035156,-146.3397216796875,79.51309967041016,26.12162971496582,41.92094421386719,19.689542770385742,0.3028240203857422,-0.004382668063044548,0.010628416202962399,0.0006439361604861915,0.002371220849454403,-0.00088553037494421,0.007656365167349577,0.21340031921863556,-0.09136088192462921,0.765262246131897,-0.0,2867.273681640625,2048.169189453125,1642.0360107421875,2589.99365234375
1767765930.5975976,16137296052353762183,1775,30.680932998657227,26.302396774291992,52.93147277832031,54.59498596191406,0.02266061305999756,4.781663417816162,0.5094982981681824,4.680330276489258,0.9947280883789062,466.55731201171875,48.734554290771484,457.8049011230469,0.0,0.0,0.0,0.0,0.0001725117617752403,0.00012801570119336247,0.00017086039588321,0.0001256086106877774,0.00045929118641652167,0.0004646446614060551,0.0006642054067924619,0.0006621201755478978,-187.41392517089844,291.0321044921875,166.1337127685547,-146.7921142578125,80.9133529663086,25.708133697509766,41.48341751098633,20.63773536682129,0.30281829833984375,-0.004339884966611862,0.010654767043888569,0.000638238328974694,0.0023802518844604492,-0.0009099720628000796,0.007757068146020174,0.2131074219942093,-0.09199489653110504,0.7646210193634033,-0.0,2868.1533203125,2048.74267578125,1643.368408203125,2590.53857421875
1767765931.6024818,16137296052353762183,1795,30.690336227416992,26.205358505249023,52.92718505859375,54.493629455566406,0.0054931314662098885,-4.804934024810791,-0.47369107604026794,-4.687655925750732,2.8408310413360596,-473.6402893066406,-45.979774475097656,-462.1589050292969,0.0,0.0,0.0,0.0,5.290342232910916e-05,0.00011176575935678557,5.423792754299939e-05,0.00011418700887588784,-0.0004858441243413836,-0.0004893504083156586,-0.0007059919298626482,-0.0007047642720863223,-114.39618682861328,333.1387634277344,219.3310546875,-60.59294509887695,74.03374481201172,23.324321746826172,34.596717834472656,20.602121353149414,0.3030071258544922,0.0039658029563724995,-0.010855194181203842,-0.0007673137588426471,-0.0019533555023372173,0.0007753920508548617,-0.007500133942812681,-0.2140687108039856,0.09455964714288712,-0.7783048748970032,-0.0,2848.9501953125,1942.6578369140625,1596.232177734375,2464.171630859375
1767765932.6416535,16137296052353762183,1817,30.687528610229492,26.30568504333496,52.93587112426758,54.59097671508789,-0.014515661634504795,4.824129581451416,0.4794732928276062,4.714759826660156,-1.180678129196167,474.3321838378906,46.96157455444336,462.7823791503906,0.0,0.0,0.0,0.0,0.00018889305647462606,0.0001263547601411119,0.00018726578855421394,0.00012392889766488224,0.0005147173069417477,0.0005202115862630308,0.0007976582273840904,0.0007955229375511408,-184.6779022216797,283.69976806640625,163.98162841796875,-138.26458740234375,82.60595703125,25.292638778686523,42.11351013183594,21.620027542114258,0.3028109073638916,-0.003937948029488325,0.010566100478172302,0.000559674808755517,0.0023963460698723793,-0.0011066300794482231,0.008274317719042301,0.21380466222763062,-0.09296763688325882,0.7756673097610474,-0.0,2869.527099609375,2047.913330078125,1645.77001953125,2589.254638671875
1767765933.6976054,16137296052353762183,1838,30.688858032226562,26.306346893310547,52.936676025390625,54.59028625488281,-0.02379082515835762,4.8172760009765625,0.4758164882659912,4.7045440673828125,-0.5947238802909851,472.92730712890625,47.617610931396484,461.58642578125,0.0,0.0,0.0,0.0,0.00018811244808603078,0.00012667581904679537,0.00018642141367308795,0.00012429666821844876,0.0005220299353823066,0.0005275261355563998,0.0008022237452678382,0.0008000893867574632,-185.16871643066406,283.17950439453125,163.76473999023438,-138.4790496826172,82.54914093017578,25.304563522338867,42.071258544921875,21.95091438293457,0.302807092666626,-0.0038908380083739758,0.010530867613852024,0.0005522521678358316,0.002391200978308916,-0.0011193326208740473,0.00830022618174553,0.21403609216213226,-0.09284845739603043,0.7776424288749695,-0.0,2869.922607421875,2047.909423828125,1646.22802734375,2588.9443359375
1767765934.7378166,16137296052353762183,1859,30.689468383789062,26.20987892150879,52.9271125793457,54.49477005004883,0.002924868371337652,-4.856743812561035,-0.48662498593330383,-4.728781223297119,1.01128351688385,-475.0088806152344,-47.22816848754883,-462.02911376953125,0.0,0.0,0.0,0.0,5.305619561113417e-05,0.00011003584222635254,5.4533891670871526e-05,0.00011237717262702063,-0.0005002896068617702,-0.0005038163508288562,-0.0007192287594079971,-0.0007179909152910113,-113.27215576171875,333.93572998046875,219.71786499023438,-59.91194152832031,73.99043273925781,23.241975784301758,34.58380126953125,20.778282165527344,0.30299830436706543,0.003925250377506018,-0.010766609571874142,-0.0007713221712037921,-0.0019624270498752594,0.0007709130877628922,-0.00750993937253952,-0.2140800952911377,0.09372816234827042,-0.7772318720817566,-0.0,2848.379638671875,1943.3515625,1595.974365234375,2464.85791015625
1767765935.798422,16137296052353762183,1880,30.688207626342773,26.209421157836914,52.92704772949219,54.49454116821289,0.004292747005820274,-4.8266921043396,-0.4837104082107544,-4.708686828613281,1.6602764129638672,-473.5018615722656,-46.44098663330078,-461.5762634277344,0.0,0.0,0.0,0.0,5.27071206306573e-05,0.0001090939695131965,5.4180989536689594e-05,0.00011143724987050518,-0.0004948938149027526,-0.000498420384246856,-0.0007121735834516585,-0.0007109357393346727,-113.6926040649414,333.7016906738281,219.51687622070312,-60.29566955566406,73.98989868164062,23.203638076782227,34.5817985534668,20.719369888305664,0.3029968738555908,0.003939962480217218,-0.010834112763404846,-0.0007703487062826753,-0.0019607525318861008,0.0007776936981827021,-0.0075057316571474075,-0.2138185352087021,0.09371133148670197,-0.7752323150634766,-0.0,2848.302978515625,1943.4456787109375,1596.054443359375,2464.752685546875
1767765936.8365564,16137296052353762183,1901,30.68636131286621,26.31166648864746,52.93522262573242,54.591548919677734,-0.02213403210043907,4.768552303314209,0.4750092029571533,4.661739826202393,-0.8696697354316711,470.9202575683594,47.63715744018555,460.3145751953125,0.0,0.0,0.0,0.0,0.0001879658957477659,0.00012337998487055302,0.0001865381927927956,0.00012081824388587847,0.0004893651930615306,0.0004948024870827794,0.0007724789902567863,0.0007703613373450935,-183.02484130859375,283.3092346191406,164.49061584472656,-138.38812255859375,82.94039154052734,23.979585647583008,42.24388122558594,21.318117141723633,0.30280017852783203,-0.004011212382465601,0.010533287189900875,0.0005748265539295971,0.0023766388185322285,-0.0010592249454930425,0.008116595447063446,0.21337999403476715,-0.09302769601345062,0.7737141251564026,-0.0,2868.77294921875,2048.69873046875,1645.240966796875,2589.546875
1767765937.8962722,16137296052353762183,1922,30.687772750854492,26.31197166442871,52.93635177612305,54.59067916870117,0.018129752948880196,4.73214054107666,0.48584073781967163,4.636089324951172,1.9111547470092773,466.81451416015625,47.98225784301758,458.2432861328125,0.0,0.0,0.0,0.0,0.0001872370921773836,0.00012822104326914996,0.00018563316552899778,0.00012583783245645463,0.0004996923380531371,0.0005051129846833646,0.0007668213220313191,0.0007647120510227978,-183.05760192871094,282.99774169921875,164.4544219970703,-138.08529663085938,83.29298400878906,23.998132705688477,42.3897590637207,21.350128173828125,0.3027975559234619,-0.004012790508568287,0.010610277764499187,0.000564776302780956,0.0023860312066972256,-0.0010888294782489538,0.008190033957362175,0.21289294958114624,-0.0928942933678627,0.7701471447944641,-0.0,2869.3173828125,2048.344970703125,1645.87060546875,2588.884033203125
1767765938.9355328,16137296052353762183,1943,30.686634063720703,26.21509552001953,52.92655563354492,54.496070861816406,0.013861201703548431,-4.791477680206299,-0.4813784062862396,-4.696101188659668,-0.7122571468353271,-473.4985656738281,-48.003089904785156,-462.4649963378906,0.0,0.0,0.0,0.0,5.357222107704729e-05,0.00010806314821820706,5.5192878789966926e-05,0.000110275337647181,-0.000515874067787081,-0.0005194039549678564,-0.0007338079740293324,-0.0007325660553760827,-111.41870880126953,332.9969177246094,218.95570373535156,-60.214908599853516,74.36891174316406,21.803634643554688,34.87501907348633,19.932947158813477,0.30298519134521484,0.0037908549420535564,-0.010717223398387432,-0.0007505337707698345,-0.0019468703540042043,0.0008086968446150422,-0.007560485973954201,-0.21388183534145355,0.09240444749593735,-0.7755072712898254,-0.0,2847.7275390625,1944.405517578125,1595.842529296875,2465.54296875
1767765939.9944115,16137296052353762183,1964,30.686302185058594,26.21541976928711,52.92683792114258,54.495975494384766,-0.0018396573141217232,-4.737945079803467,-0.4819902181625366,-4.657092571258545,-1.7981511354446411,-469.940185546875,-47.96769714355469,-460.6212158203125,0.0,0.0,0.0,0.0,5.331425927579403e-05,0.0001081652517314069,5.487124508363195e-05,0.00011041812103940174,-0.0005010259919799864,-0.0005045459838584065,-0.0007184192072600126,-0.0007171811885200441,-112.5806884765625,332.3341369628906,218.92269897460938,-61.07294464111328,74.4117202758789,21.8201847076416,34.92894744873047,19.950632095336914,0.30298399925231934,0.0038002876099199057,-0.01076418161392212,-0.0007520766230300069,-0.001939086359925568,0.0008087921887636185,-0.0074979765340685844,-0.21353736519813538,0.09298041462898254,-0.7715656757354736,-0.0,2847.978271484375,1944.685302734375,1596.1597900390625,2465.603515625
1767765940.99588,16137296052353762183,1984,30.680850982666016,26.31279754638672,52.93403625488281,54.59123611450195,-0.15485095977783203,5.0384135246276855,0.46353960037231445,4.9224371910095215,-3.905418872833252,504.3755187988281,49.48120880126953,485.70904541015625,0.0,0.0,0.0,0.0,0.00018984467897098511,0.00012972656986676157,0.00018799261306412518,0.0001272987137781456,0.0005774176679551601,0.0005830590380355716,0.0008542774594388902,0.0008520843111909926,-185.86614990234375,278.5474548339844,160.9180908203125,-139.628662109375,83.00565338134766,24.144941329956055,42.474300384521484,21.92331314086914,0.3027932643890381,-0.0037237301003187895,0.009971479885280132,0.0005434156628325582,0.0023642920423299074,-0.0010269589256495237,0.008425381034612656,0.21922291815280914,-0.09044104069471359,0.8126126527786255,-0.0,2867.66748046875,2050.116455078125,1645.434814453125,2590.813720703125
1767765942.0357037,16137296052353762183,2005,30.688249588012695,26.212810516357422,52.92884826660156,54.493064880371094,0.009782373905181885,-4.808539390563965,-0.4677254855632782,-4.67963171005249,2.267286777496338,-471.93756103515625,-45.79850387573242,-459.26312255859375,0.0,0.0,0.0,0.0,5.062237323727459e-05,0.00010826521611306816,5.195123594603501e-05,0.00011071989865740761,-0.00047167614684440196,-0.00047522614477202296,-0.000688567291945219,-0.0006873225211165845,-113.39535522460938,331.80181884765625,219.34400939941406,-59.935279846191406,74.10079956054688,22.875329971313477,34.77524948120117,22.324697494506836,0.3029816150665283,0.00401537399739027,-0.01089791115373373,-0.0007825107895769179,-0.0019569385331124067,0.0007558842189610004,-0.0074005890637636185,-0.21339215338230133,0.09448377788066864,-0.7739711999893188,-0.0,2848.332763671875,1943.8323974609375,1597.288818359375,2464.1748046875
1767765943.0383277,16137296052353762183,2025,30.688800811767578,26.3116397857666,52.939178466796875,54.58837890625,-0.0015538157895207405,4.816828727722168,0.49009180068969727,4.688867568969727,0.6926425695419312,472.1896667480469,48.2690544128418,459.5805969238281,0.0,0.0,0.0,0.0,0.00018761375395115465,0.00012630947458092123,0.00018583369092084467,0.00012402096763253212,0.0005359446513466537,0.0005414075567387044,0.0008242513868026435,0.0008221318130381405,-183.97604370117188,281.31500244140625,163.05526733398438,-137.73333740234375,82.64956665039062,24.961589813232422,42.27204895019531,23.923967361450195,0.3027839660644531,-0.0038391025736927986,0.010538795962929726,0.0005409133736975491,0.0023898673243820667,-0.0011497277300804853,0.008389296010136604,0.21398070454597473,-0.09235523641109467,0.7763084769248962,-0.0,2869.910400390625,2048.381591796875,1647.77294921875,2588.074951171875
1767765944.0524664,16137296052353762183,2045,30.68467140197754,26.211942672729492,52.92723083496094,54.492977142333984,0.05714749917387962,-4.9344801902771,-0.4725865423679352,-4.746466636657715,4.782408714294434,-475.4861755371094,-46.69657516479492,-458.35101318359375,0.0,0.0,0.0,0.0,5.230234455666505e-05,9.911485540214926e-05,5.4136820835992694e-05,0.00010113093594554812,-0.0005376478075049818,-0.0005411250749602914,-0.0007285294705070555,-0.0007273071096278727,-108.16888427734375,334.5025634765625,219.96841430664062,-59.07173538208008,72.91427612304688,22.371259689331055,34.741580963134766,23.35779571533203,0.3029813766479492,0.004142169840633869,-0.011121083982288837,-0.0007627710001543164,-0.002015349455177784,0.0008017801446840167,-0.007821504957973957,-0.21249952912330627,0.08982814848423004,-0.7797496914863586,-0.0,2846.442138671875,1943.8558349609375,1595.9981689453125,2464.509033203125
1767765945.1029649,16137296052353762183,2066,30.68485450744629,26.31468963623047,52.937950134277344,54.59108352661133,-0.01277671754360199,4.9446797370910645,0.484075665473938,4.757078170776367,-2.196244955062866,475.759033203125,46.290889739990234,459.0755615234375,0.0,0.0,0.0,0.0,0.0001880679337773472,0.00012419529957696795,0.0001863814250100404,0.00012181814963696525,0.0005391502054408193,0.0005445834249258041,0.0008206233032979071,0.0008185102487914264,-184.107421875,281.1479797363281,162.5382537841797,-138.9837646484375,81.61752319335938,24.621944427490234,42.45485305786133,24.92319107055664,0.3027784824371338,-0.004107373300939798,0.01074666902422905,0.0005634640110656619,0.0024120821617543697,-0.0011007365537807345,0.00842182245105505,0.21298645436763763,-0.09097018837928772,0.7785235643386841,-0.0,2868.918212890625,2049.407958984375,1647.30810546875,2589.28125
1767765946.1408215,16137296052353762183,2087,30.686683654785156,26.317537307739258,52.937564849853516,54.59117889404297,-0.08165590465068817,4.863334655761719,0.43332064151763916,4.741304397583008,-6.254134178161621,479.8777160644531,43.653751373291016,463.31201171875,0.0,0.0,0.0,0.0,0.00018623325740918517,0.0001215836891788058,0.00018464375170879066,0.00011907687439816073,0.0005204967455938458,0.0005259707104414701,0.0008075297810137272,0.0008054025820456445,-183.5401153564453,282.1117858886719,162.7681427001953,-139.0605926513672,81.132080078125,24.47422981262207,42.33919143676758,25.312786102294922,0.30277562141418457,-0.003989520017057657,0.010713018476963043,0.000560606480576098,0.002388566732406616,-0.001122475485317409,0.008350390940904617,0.21372950077056885,-0.09394487738609314,0.783749520778656,-0.0,2868.281494140625,2049.993408203125,1646.722412109375,2589.44287109375
1767765947.1492484,16137296052353762183,2107,30.683652877807617,26.214826583862305,52.92717742919922,54.49302291870117,0.021986372768878937,-4.881246089935303,-0.48062390089035034,-4.731503486633301,3.2000627517700195,-472.8360900878906,-46.267330169677734,-458.9198913574219,0.0,0.0,0.0,0.0,5.119810521136969e-05,0.00010319535795133561,5.2894436521455646e-05,0.0001053282103384845,-0.0005261345650069416,-0.0005296546733006835,-0.000730307016056031,-0.0007290676585398614,-109.00094604492188,333.4742431640625,219.2858123779297,-60.121334075927734,72.19345092773438,22.29450798034668,34.62197494506836,23.52663230895996,0.30297374725341797,0.00398552231490612,-0.01095682755112648,-0.0007573572220280766,-0.001992452424019575,0.0008090769406408072,-0.007701948285102844,-0.21324153244495392,0.09180764108896255,-0.7774307131767273,-0.0,2846.165771484375,1944.2291259765625,1595.9141845703125,2464.119140625
1767765948.2039201,16137296052353762183,2129,30.684492111206055,26.316408157348633,52.93838119506836,54.590721130371094,-0.010446950793266296,4.927178382873535,0.4987518787384033,4.749760627746582,-1.5859183073043823,475.06268310546875,47.587520599365234,458.6790771484375,0.0,0.0,0.0,0.0,0.00019226442964281887,0.00012869622150901705,0.00019058534235227853,0.00012628163676708937,0.0005320038180798292,0.0005374660831876099,0.000815994048025459,0.0008138666162267327,-183.5512237548828,281.7100524902344,162.95797729492188,-140.0266876220703,81.16707611083984,24.60196876525879,40.696197509765625,25.437454223632812,0.30277156829833984,-0.00412373011931777,0.010736444965004921,0.0005619069561362267,0.0024207206442952156,-0.0011015105992555618,0.008405197411775589,0.21329869329929352,-0.09134022146463394,0.7778870463371277,-0.0,2868.75634765625,2049.779052734375,1647.553955078125,2589.010986328125
1767765949.2380583,16137296052353762183,2150,30.68186378479004,26.316450119018555,52.93743896484375,54.5911750793457,-0.00905317347496748,4.910316467285156,0.4903056025505066,4.743325710296631,-1.6704410314559937,473.6087646484375,46.64399719238281,457.9301452636719,0.0,0.0,0.0,0.0,0.00018958572763949633,0.00012789835454896092,0.00018790979811456054,0.000125472666695714,0.0005247840308584273,0.000530194491147995,0.0008008198929019272,0.0007987110875546932,-183.10227966308594,282.2164001464844,163.77651977539062,-141.26681518554688,81.36827850341797,24.56623649597168,40.57967758178711,25.86097526550293,0.30277156829833984,-0.0042352331802248955,0.010828639380633831,0.0005776777397841215,0.002421486657112837,-0.0010722405277192593,0.00836485717445612,0.2124851793050766,-0.09058145433664322,0.7744632363319397,-0.0,2867.983154296875,2049.690185546875,1646.8055419921875,2588.919189453125
1767765950.2502007,16137296052353762183,2170,30.68321418762207,26.214792251586914,52.92784881591797,54.491947174072266,-0.020026516169309616,-4.92020845413208,-0.49344614148139954,-4.738345623016357,0.9050110578536987,-471.83929443359375,-46.58972930908203,-456.5131530761719,0.0,0.0,0.0,0.0,5.1336166507098824e-05,0.00011049507156712934,5.284066355670802e-05,0.0001127829309552908,-0.0005166333285160363,-0.0005201086751185358,-0.0007414091960527003,-0.0007401903858408332,-109.7147445678711,333.9958801269531,220.17808532714844,-61.903533935546875,72.22259521484375,22.485198974609375,32.91612243652344,24.409128189086914,0.30296778678894043,0.0040367357432842255,-0.010987788438796997,-0.000769705162383616,-0.0019981786608695984,0.0007968227146193385,-0.00768327247351408,-0.21318210661411285,0.09245461970567703,-0.7766274213790894,-0.0,2845.8916015625,1944.170166015625,1596.1292724609375,2463.35302734375
1767765951.285965,16137296052353762183,2191,30.688156127929688,26.21625518798828,52.93069839477539,54.49101257324219,0.06510055810213089,-4.906526565551758,-0.47337666153907776,-4.75288200378418,4.674917697906494,-475.34283447265625,-46.76782989501953,-459.6545715332031,0.0,0.0,0.0,0.0,5.785007670056075e-05,0.00012176629388704896,5.917934686294757e-05,0.0001243262959178537,-0.0004981603124178946,-0.0005015720962546766,-0.0007309264037758112,-0.0007297361735254526,-109.85858917236328,333.9044494628906,221.2116241455078,-60.53914260864258,73.1635971069336,21.6395320892334,33.368003845214844,23.543569564819336,0.3029611110687256,0.004171646200120449,-0.01098020188510418,-0.0008033315534703434,-0.0019768490456044674,0.0007301562000066042,-0.007577620446681976,-0.21374034881591797,0.09149054437875748,-0.7803276181221008,-0.0,2847.517822265625,1944.4654541015625,1598.02099609375,2463.143310546875
1767765952.2945595,16137296052353762183,2211,30.683048248291016,26.31983184814453,52.938392639160156,54.59090805053711,-0.0283695999532938,4.908302307128906,0.4862585961818695,4.741879463195801,-2.9408347606658936,473.6299743652344,46.62360763549805,458.0055236816406,0.0,0.0,0.0,0.0,0.00019060136401094496,0.0001201270570163615,0.0001891477295430377,0.00011749457917176187,0.0005146726034581661,0.0005200903979130089,0.0008119239937514067,0.0008098141406662762,-181.7421112060547,280.5760192871094,163.95635986328125,-140.4748992919922,81.51083374023438,25.237478256225586,40.693115234375,24.788158416748047,0.3027622699737549,-0.004141700454056263,0.01069582812488079,0.0005818959907628596,0.0024015887174755335,-0.0010603275150060654,0.008280731737613678,0.21329553425312042,-0.09125115722417831,0.7767997980117798,-0.0,2867.96142578125,2050.377197265625,1647.392333984375,2589.21826171875
1767765953.3443623,16137296052353762183,2234,30.67978858947754,26.223159790039062,52.92570114135742,54.494747161865234,0.02462870068848133,-4.894773006439209,-0.47156715393066406,-4.738670349121094,3.410817861557007,-473.49609375,-46.210174560546875,-459.433837890625,0.0,0.0,0.0,0.0,4.9916929128812626e-05,9.338293602922931e-05,5.1968781917821616e-05,9.515471174381673e-05,-0.0005641394527629018,-0.0005677516455762088,-0.0007546163396909833,-0.0007533358293585479,-103.32929992675781,330.0897521972656,220.4037322998047,-61.75773239135742,73.20174407958984,22.57251739501953,33.21675491333008,22.88125228881836,0.3029594421386719,0.003756997175514698,-0.010920903645455837,-0.0007168123265728354,-0.0020100753754377365,0.0008984865853562951,-0.00784951914101839,-0.21348436176776886,0.09217949211597443,-0.7777910232543945,-0.0,2844.36083984375,1945.3890380859375,1595.0584716796875,2464.87158203125
1767765954.3543396,16137296052353762183,2254,30.68082046508789,26.32387924194336,52.93716812133789,54.59208297729492,-0.00017914957425091416,4.99218225479126,0.4966026842594147,4.784906387329102,-2.669619083404541,476.5114440917969,46.1443977355957,457.85748291015625,0.0,0.0,0.0,0.0,0.0001803358900360763,0.00011746276868507266,0.00017874201876111329,0.00011497271771077067,0.0005232140538282692,0.0005285549559630454,0.0007899949559941888,0.0007879139739088714,-179.64170837402344,276.94189453125,163.52224731445312,-142.0298614501953,82.16194915771484,24.61794662475586,42.695377349853516,24.42844009399414,0.30275535583496094,-0.0042975833639502525,0.01079708430916071,0.0006053599645383656,0.0024081170558929443,-0.001006358303129673,0.008246473036706448,0.21270577609539032,-0.08971858024597168,0.777337908744812,-0.0,2867.39892578125,2050.841796875,1646.9969482421875,2589.55126953125
1767765955.3986638,16137296052353762183,2275,30.68248176574707,26.222625732421875,52.9278564453125,54.49315643310547,0.008253930136561394,-4.815488338470459,-0.4914263188838959,-4.692767143249512,0.331119567155838,-470.9631042480469,-47.55428695678711,-457.888427734375,0.0,0.0,0.0,0.0,4.1199815314030275e-05,9.71887493506074e-05,4.2839372326852754e-05,9.940210293279961e-05,-0.000521480047609657,-0.0005250579561106861,-0.0007459638291038573,-0.0007446950185112655,-105.3141098022461,328.67474365234375,219.76071166992188,-62.76155090332031,72.97000122070312,22.59569549560547,34.700626373291016,22.813804626464844,0.3029520511627197,0.003938104026019573,-0.010931797325611115,-0.0007518000202253461,-0.001985619543120265,0.0008202302269637585,-0.007693634368479252,-0.21260537207126617,0.09055987745523453,-0.7719891667366028,-0.0,2845.241455078125,1945.424072265625,1596.5294189453125,2464.042724609375
1767765956.4525867,16137296052353762183,2296,30.683881759643555,26.32095718383789,52.93949508666992,54.58769989013672,-0.027339840307831764,4.86894416809082,0.47594937682151794,4.714078903198242,-1.9526070356369019,475.1664733886719,46.7909049987793,459.7658386230469,0.0,0.0,0.0,0.0,0.00017991963250096887,0.000120921315101441,0.00017814755847211927,0.00011863485269714147,0.0005336751928552985,0.0005390931037254632,0.0008086055750027299,0.0008065027068369091,-178.1881866455078,275.5500793457031,163.97674560546875,-140.23199462890625,82.59708404541016,25.21992301940918,42.75200271606445,24.538970947265625,0.30275511741638184,-0.003956377971917391,0.010652723722159863,0.0005598238203674555,0.002386028878390789,-0.001113346079364419,0.008352333679795265,0.21327237784862518,-0.09165194630622864,0.7778104543685913,-0.0,2867.52880859375,2049.486328125,1647.8370361328125,2587.267333984375
1767765957.492409,16137296052353762183,2317,30.685989379882812,26.223331451416016,52.93064880371094,54.49176788330078,0.04605447128415108,-4.7848124504089355,-0.47153186798095703,-4.673750400543213,2.8337295055389404,-472.45025634765625,-47.22157669067383,-460.5875549316406,0.0,0.0,0.0,0.0,4.539042856777087e-05,0.00010199593816651031,4.6842204028507695e-05,0.00010436996672069654,-0.0004929582355543971,-0.0004965206026099622,-0.0007121039088815451,-0.0007108465069904923,-106.17047882080078,327.2895202636719,220.49644470214844,-61.59357452392578,73.78611755371094,23.311809539794922,35.124168395996094,22.223981857299805,0.3029460906982422,0.003981683403253555,-0.0107948649674654,-0.0007727288757450879,-0.0019568530842661858,0.0007574614137411118,-0.007488246075809002,-0.21346986293792725,0.09159664809703827,-0.7758406400680542,-0.0,2846.689208984375,1945.37158203125,1598.2806396484375,2463.389892578125
1767765958.4962537,16137296052353762183,2337,30.677265167236328,26.322429656982422,52.936824798583984,54.58848190307617,-0.037291496992111206,4.754940509796143,0.4591972827911377,4.645899295806885,-1.8524048328399658,469.78955078125,46.75697326660156,458.07696533203125,0.0,0.0,0.0,0.0,0.00017452979227527976,0.00010700819257181138,0.00017316445882897824,0.00010437377204652876,0.0004898266633972526,0.0004951539449393749,0.0007743298774585128,0.0007722581503912807,-176.25086975097656,275.88671875,165.6526641845703,-139.25555419921875,85.46259307861328,24.579435348510742,42.312469482421875,22.605480194091797,0.30275535583496094,-0.004037189297378063,0.010647420771420002,0.0005953005747869611,0.002347010187804699,-0.0010407210793346167,0.008100826293230057,0.21238669753074646,-0.09200803935527802,0.7729997634887695,-0.0,2865.8388671875,2049.304931640625,1645.7196044921875,2587.492919921875
1767765959.5441341,16137296052353762183,2358,30.688425064086914,26.22308349609375,52.93206787109375,54.48923873901367,0.05312856659293175,-4.837342262268066,-0.467494934797287,-4.7042927742004395,5.270002365112305,-474.5094909667969,-45.938026428222656,-461.20758056640625,0.0,0.0,0.0,0.0,3.60279118467588e-05,0.00010425777145428583,3.709888915182091e-05,0.0001070280559360981,-0.0004623749991878867,-0.0004659807018470019,-0.0007088488782756031,-0.0007075740722939372,-103.21375274658203,322.4150695800781,220.86288452148438,-61.14485549926758,76.5447769165039,23.61784553527832,34.50985336303711,22.446107864379883,0.3029439449310303,0.004174112342298031,-0.010882535949349403,-0.0008051450131461024,-0.0019687984604388475,0.0007050110143609345,-0.007388615980744362,-0.21354489028453827,0.09207401424646378,-0.776840329170227,-0.0,2846.958251953125,1944.106201171875,1599.0286865234375,2461.917724609375
1767765960.5453243,16137296052353762183,2379,30.688758850097656,26.330034255981445,52.94020080566406,54.587074279785156,-0.016398999840021133,4.800260066986084,0.47119787335395813,4.675718784332275,-1.1904317140579224,470.8067932128906,46.77519607543945,458.8636169433594,0.0,0.0,0.0,0.0,0.00018442368309479207,0.00012519591837190092,0.00018267278210259974,0.00012291529856156558,0.0005258789169602096,0.0005313348374329507,0.0008038092637434602,0.0008016886422410607,-171.5446014404297,268.9299011230469,165.422607421875,-138.6495819091797,85.82740783691406,21.80349349975586,42.2765007019043,23.6983699798584,0.30274295806884766,-0.0038888428825885057,0.010647380724549294,0.0005476773367263377,0.0023979132529348135,-0.0011523689609020948,0.008359143510460854,0.21339155733585358,-0.09330952912569046,0.7748792767524719,-0.0,2867.80419921875,2049.2841796875,1647.965087890625,2586.85009765625
1767765961.551999,16137296052353762183,2399,30.683975219726562,26.231611251831055,52.92828369140625,54.49269485473633,-0.001180933672003448,-4.826294422149658,-0.486544668674469,-4.699389457702637,0.4085826873779297,-470.57525634765625,-46.344974517822266,-457.44671630859375,0.0,0.0,0.0,0.0,4.57860114693176e-05,0.00010098482016474009,4.741176962852478e-05,0.00010321904846932739,-0.0005128599586896598,-0.0005164204631000757,-0.0007330290391109884,-0.0007317692507058382,-101.31414031982422,322.277587890625,220.92347717285156,-61.025672912597656,76.06556701660156,19.36734962463379,35.45936965942383,22.08877944946289,0.30293822288513184,0.003933568485081196,-0.01091139018535614,-0.0007596262148581445,-0.0019797999411821365,0.0008077335078269243,-0.007618251256644726,-0.21287311613559723,0.09179111570119858,-0.7719207406044006,-0.0,2845.186767578125,1945.435546875,1596.6651611328125,2463.9013671875
1767765962.5951216,16137296052353762183,2420,30.68402099609375,26.329261779785156,52.93874740600586,54.58766555786133,-0.024584831669926643,4.80683708190918,0.47762206196784973,4.680074691772461,-1.3228366374969482,471.51446533203125,47.4974365234375,458.98773193359375,0.0,0.0,0.0,0.0,0.00018162229389417917,0.00012032980157528073,0.00018001651915255934,0.00011790858843596652,0.0005098547553643584,0.0005152625381015241,0.0007862338097766042,0.0007841302431188524,-173.93899536132812,271.6672668457031,165.48121643066406,-139.79745483398438,84.72096252441406,21.46341896057129,43.09027099609375,23.83909797668457,0.30274105072021484,-0.003981678280979395,0.010572823695838451,0.0005742094363085926,0.0023750693071633577,-0.0010706514585763216,0.008200030773878098,0.21312247216701508,-0.09177006781101227,0.77485591173172,-0.0,2867.048583984375,2049.6552734375,1647.15673828125,2587.241455078125
1767765963.5975404,16137296052353762183,2440,30.685989379882812,26.233312606811523,52.92975997924805,54.49252700805664,-0.023534994572401047,-4.770186424255371,-0.4981726408004761,-4.655533313751221,-1.526879906654358,-467.77880859375,-48.26752471923828,-456.73480224609375,0.0,0.0,0.0,0.0,4.386468208394945e-05,0.00010207706509390846,4.531860395218246e-05,0.0001044143718900159,-0.0004928804119117558,-0.0004964224062860012,-0.0007227995083667338,-0.000721546879503876,-102.8808364868164,321.8799743652344,220.73602294921875,-61.61197280883789,76.04109954833984,19.4747371673584,35.39865493774414,22.47223472595215,0.3029298782348633,0.003936673514544964,-0.010785121470689774,-0.0007694591186009347,-0.001960414694622159,0.0007723313756287098,-0.007483629509806633,-0.21306408941745758,0.09162695705890656,-0.7692936062812805,-0.0,2845.962158203125,1945.9107666015625,1597.6102294921875,2463.78857421875
1767765964.6389518,16137296052353762183,2461,30.68362808227539,26.32954216003418,52.939208984375,54.58706283569336,-0.025070037692785263,4.80713415145874,0.48566335439682007,4.686633110046387,-0.18296049535274506,471.9053649902344,48.062355041503906,459.06317138671875,0.0,0.0,0.0,0.0,0.0001812545961001888,0.00012059516302542761,0.00017958715034183115,0.00011817858467111364,0.0005146753392182291,0.0005200774758122861,0.0007921888609416783,0.0007900880300439894,-174.2591552734375,271.3232421875,165.1971893310547,-140.0850067138672,84.68895721435547,21.474245071411133,43.06834411621094,24.16276741027832,0.3027372360229492,-0.003965387120842934,0.010516655631363392,0.0005755830788984895,0.002369796158745885,-0.0010590741876512766,0.008199966512620449,0.2134511023759842,-0.09089186787605286,0.7750899195671082,-0.0,2867.09228515625,2049.632568359375,1647.50048828125,2586.971923828125
1767765965.645812,16137296052353762183,2481,30.681381225585938,26.227876663208008,52.9287109375,54.48917007446289,0.05016150698065758,-5.102041244506836,-0.47345420718193054,-4.860210418701172,3.4890100955963135,-480.912353515625,-45.75713348388672,-458.5664367675781,0.0,0.0,0.0,0.0,4.5803506509400904e-05,0.00010074518650071695,4.757614806294441e-05,0.00010296101390849799,-0.0005496398080140352,-0.0005531514761969447,-0.000760638911742717,-0.0007593989139422774,-97.03144836425781,325.480712890625,222.44912719726562,-58.39336013793945,76.00189971923828,19.700815200805664,35.46923065185547,23.341064453125,0.30293846130371094,0.004314051009714603,-0.011321059428155422,-0.0007839741301722825,-0.002060114173218608,0.0007938129128888249,-0.00794095266610384,-0.21271948516368866,0.08884740620851517,-0.782954752445221,-0.0,2843.55908203125,1944.198486328125,1596.2801513671875,2462.34033203125
1767765966.6502645,16137296052353762183,2502,30.680519104003906,26.23080062866211,52.92902755737305,54.492835998535156,0.037565749138593674,-4.8387956619262695,-0.4804413616657257,-4.6983561515808105,1.8831562995910645,-474.5600280761719,-48.0489387512207,-459.8455810546875,0.0,0.0,0.0,0.0,3.549510438460857e-05,8.651083044242114e-05,3.725576607394032e-05,8.860405068844557e-05,-0.0005325340898707509,-0.0005362117080949247,-0.000744913297239691,-0.0007436014129780233,-101.21680450439453,324.0975646972656,221.2718963623047,-62.26744079589844,75.95377349853516,21.15910530090332,35.333656311035156,22.744421005249023,0.30292797088623047,0.00388587499037385,-0.010849891230463982,-0.0007383757620118558,-0.0019925436936318874,0.0008302002679556608,-0.007725127972662449,-0.21272888779640198,0.09038519859313965,-0.7769673466682434,-0.0,2844.633056640625,1945.81787109375,1597.29443359375,2463.873046875
1767765967.6948352,16137296052353762183,2523,30.676706314086914,26.330974578857422,52.93768310546875,54.590003967285156,-0.0076452260836958885,4.851715087890625,0.5018545389175415,4.701086521148682,0.778022289276123,472.3266906738281,48.182945251464844,458.81439208984375,0.0,0.0,0.0,0.0,0.0001712831435725093,0.00010412300616735592,0.00016990491712931544,0.00010147505236091092,0.0004979320801794529,0.0005031903856433928,0.0007774246041662991,0.0007753754034638405,-175.38888549804688,274.0357360839844,165.63531494140625,-141.47703552246094,85.02835845947266,23.327495574951172,43.38918685913086,24.12668228149414,0.3027305603027344,-0.004153057467192411,0.010611551813781261,0.0006136305164545774,0.002348336623981595,-0.0009786193259060383,0.008072253316640854,0.21292155981063843,-0.09032472223043442,0.7749029397964478,-0.0,2865.959228515625,2051.0078125,1646.8846435546875,2588.5986328125
1767765968.7005732,16137296052353762183,2543,30.678855895996094,26.230281829833984,52.92840576171875,54.49138641357422,-0.08939474821090698,-4.832960605621338,-0.5181618332862854,-4.684394359588623,-7.132516384124756,-466.384765625,-48.58228302001953,-454.1138916015625,0.0,0.0,0.0,0.0,3.214218668290414e-05,9.069086809176952e-05,3.370545891812071e-05,9.292535833083093e-05,-0.0005197888822294772,-0.0005234178970567882,-0.0007506145047955215,-0.0007493195007555187,-102.88990020751953,323.9708251953125,220.98681640625,-62.51371765136719,76.06932830810547,20.68912696838379,35.3032112121582,22.967992782592773,0.30292701721191406,0.003929889760911465,-0.010827722027897835,-0.0007469009142369032,-0.0020004301331937313,0.0008139107376337051,-0.007668681908398867,-0.21282604336738586,0.09129296243190765,-0.7723383903503418,-0.0,2843.654052734375,1945.5355224609375,1596.5531005859375,2462.898193359375
1767765969.7454455,16137296052353762183,2564,30.67731285095215,26.328916549682617,52.93877029418945,54.58749771118164,-0.01982847787439823,4.8196845054626465,0.48297807574272156,4.694437503814697,0.24320237338542938,472.5831298828125,47.920448303222656,458.9986267089844,0.0,0.0,0.0,0.0,0.0001724811882013455,0.00011253555567236617,0.00017085122817661613,0.00011008409637724981,0.0005082483985461295,0.0005135916289873421,0.0007768541108816862,0.0007747767958790064,-175.34153747558594,273.23760986328125,165.67271423339844,-141.38641357421875,85.11814880371094,22.47194480895996,43.23844528198242,24.70655059814453,0.30272841453552246,-0.004056625068187714,0.010659804567694664,0.0005940840928815305,0.00236159423366189,-0.0010379458544775844,0.008162811398506165,0.2129392921924591,-0.09099847823381424,0.7744383811950684,-0.0,2865.9599609375,2050.00390625,1647.1968994140625,2586.952880859375
1767765970.750238,16137296052353762183,2584,30.67745590209961,26.230998992919922,52.92889404296875,54.49158477783203,-0.007425772957503796,-4.834268569946289,-0.4886520206928253,-4.6811347007751465,-0.20197263360023499,-468.55950927734375,-47.580081939697266,-455.59173583984375,0.0,0.0,0.0,0.0,3.4413114917697385e-05,8.969901682576165e-05,3.606450991355814e-05,9.18554505915381e-05,-0.0005267238593660295,-0.0005303494981490076,-0.0007470918353646994,-0.000745798519346863,-102.37135314941406,324.44110107421875,220.92608642578125,-62.71450424194336,76.18975067138672,20.168655395507812,35.431617736816406,22.903392791748047,0.30292320251464844,0.003961590584367514,-0.01096468884497881,-0.0007432966376654804,-0.00200171722099185,0.0008316743187606335,-0.007747032213956118,-0.21207119524478912,0.09026399254798889,-0.7732914090156555,-0.0,2844.00634765625,1945.885986328125,1597.10986328125,2463.30908203125
1767765971.8015814,16137296052353762183,2605,30.682586669921875,26.3292179107666,52.94184494018555,54.58559799194336,-0.018568845465779305,4.881512641906738,0.4749619662761688,4.727773666381836,-2.933011770248413,475.11383056640625,46.04597473144531,460.5800476074219,0.0,0.0,0.0,0.0,0.00018041633302345872,0.0001243914884980768,0.00017853901954367757,0.00012221110227983445,0.0005408902652561665,0.0005463543348014355,0.0008102142601273954,0.000808093580417335,-175.9136962890625,271.7755432128906,163.9396209716797,-139.5547332763672,83.8675765991211,23.348848342895508,43.79250717163086,23.59270668029785,0.3027219772338867,-0.0038764183409512043,0.01057736761868,0.0005529213231056929,0.0023952662013471127,-0.0011259913444519043,0.00836233515292406,0.21383030712604523,-0.09201997518539429,0.7785311937332153,-0.0,2867.2529296875,2050.365234375,1649.2393798828125,2586.20703125
1767765972.8469687,16137296052353762183,2627,30.682058334350586,26.231706619262695,52.931365966796875,54.48974609375,-0.008569286204874516,-4.824143886566162,-0.48717305064201355,-4.685576438903809,1.3470170497894287,-470.82122802734375,-46.673133850097656,-458.4056091308594,0.0,0.0,0.0,0.0,4.1854509618133307e-05,0.0001011256972560659,4.324733163230121e-05,0.00010352893150411546,-0.0004908028058707714,-0.0004943791427649558,-0.0007177477818913758,-0.0007164825219660997,-103.59111022949219,323.052734375,220.64193725585938,-61.25615310668945,74.8133773803711,21.463394165039062,35.90031433105469,22.459299087524414,0.30291748046875,0.004012464080005884,-0.010855350643396378,-0.0007749114884063601,-0.0019746208563447,0.0007644649595022202,-0.007510822266340256,-0.21325093507766724,0.09222874790430069,-0.773775041103363,-0.0,2845.33740234375,1945.70458984375,1598.502685546875,2462.24853515625
1767765973.8526678,16137296052353762183,2647,30.68099021911621,26.33179473876953,52.94125747680664,54.5867919921875,-0.0014479717938229442,4.878216743469238,0.48724251985549927,4.728532791137695,-0.04397362098097801,473.0677185058594,47.201698303222656,458.185302734375,0.0,0.0,0.0,0.0,0.00018308543076273054,0.00011965195153607056,0.00018139574967790395,0.00011722993076546118,0.0005280200857669115,0.000533426646143198,0.0008149114437401295,0.0008128092740662396,-175.7870330810547,272.3395080566406,164.08372497558594,-139.19900512695312,84.01583862304688,23.337215423583984,43.554500579833984,23.61368751525879,0.3027174472808838,-0.004022795706987381,0.01067912857979536,0.0005706914234906435,0.0023908857256174088,-0.0010925955139100552,0.008343508467078209,0.21309763193130493,-0.0911928117275238,0.7761755585670471,-0.0,2866.957275390625,2050.75830078125,1648.9390869140625,2586.780029296875
1767765974.9010885,16137296052353762183,2668,30.681034088134766,26.231647491455078,52.93138122558594,54.48918914794922,-0.0035255502443760633,-4.900515079498291,-0.4858027398586273,-4.7244181632995605,1.159902572631836,-472.4117431640625,-46.91153335571289,-456.8324890136719,0.0,0.0,0.0,0.0,4.446046659722924e-05,0.00010119449143530801,4.599180101649836e-05,0.00010348224896006286,-0.0005145750474184752,-0.0005181189044378698,-0.0007315012044273317,-0.0007302507292479277,-102.40499877929688,324.1910705566406,221.04006958007812,-60.494998931884766,74.8061752319336,21.450899124145508,35.80773162841797,22.447681427001953,0.3029148578643799,0.004053126089274883,-0.010944204404950142,-0.0007676334935240448,-0.0020000082440674305,0.0007846956141293049,-0.007670080754905939,-0.21305780112743378,0.09202250838279724,-0.7787767648696899,-0.0,2844.593505859375,1945.6480712890625,1598.2689208984375,2462.100830078125
